participant_id,block,block_number,trial_number,timestamp_ms,left_option_shape,right_option_shape,left_option_prob,right_option_prob,selected_option,selected_shape,response_time_ms,feedback,points_earned,total_points,state,state_duration_ms,is_practice,source_file
PG11,80/20,1,1,99824,circle,square,0.2,0.8,0.0,circle,785.0,negative,0.0,0.0,5,1012,True,PG11_PRL.csv
PG11,80/20,1,2,102178,square,circle,0.8,0.2,0.0,square,314.0,positive,0.0,0.0,5,1015,True,PG11_PRL.csv
PG11,80/20,1,3,105224,circle,square,0.2,0.8,,,,,0.0,0.0,5,1016,True,PG11_PRL.csv
PG11,80/20,1,4,107503,square,circle,0.8,0.2,0.0,square,259.0,positive,0.0,0.0,5,1002,True,PG11_PRL.csv
PG11,80/20,1,5,110249,circle,square,0.2,0.8,1.0,square,724.0,positive,0.0,0.0,5,1002,True,PG11_PRL.csv
PG11,80/20,1,6,112714,circle,square,0.2,0.8,1.0,square,434.0,positive,0.0,0.0,5,1012,True,PG11_PRL.csv
PG11,80/20,1,7,115460,square,circle,0.8,0.2,0.0,square,719.0,positive,0.0,0.0,5,1011,True,PG11_PRL.csv
PG11,80/20,1,8,117795,circle,square,0.2,0.8,1.0,square,309.0,positive,0.0,0.0,5,1011,True,PG11_PRL.csv
PG11,80/20,1,9,120334,square,circle,0.8,0.2,0.0,square,522.0,positive,0.0,0.0,5,1000,True,PG11_PRL.csv
PG11,80/20,1,10,122981,square,circle,0.8,0.2,0.0,square,624.0,positive,0.0,0.0,5,1003,True,PG11_PRL.csv
PG11,80/20,1,11,125640,circle,square,0.2,0.8,1.0,square,617.0,positive,0.0,0.0,5,1015,True,PG11_PRL.csv
PG11,80/20,1,12,128089,circle,square,0.2,0.8,1.0,square,424.0,positive,0.0,0.0,5,1009,True,PG11_PRL.csv
PG11,80/20,1,13,130668,square,circle,0.8,0.2,0.0,square,546.0,negative,0.0,0.0,5,1001,True,PG11_PRL.csv
PG11,80/20,1,14,132901,circle,square,0.2,0.8,1.0,square,212.0,positive,0.0,0.0,5,1004,True,PG11_PRL.csv
PG11,80/20,1,15,135347,circle,square,0.2,0.8,1.0,square,414.0,positive,0.0,0.0,5,1014,True,PG11_PRL.csv
PG11,80/20,1,16,137855,square,circle,0.8,0.2,0.0,square,490.0,positive,0.0,0.0,5,1000,True,PG11_PRL.csv
PG11,80/20,1,17,140423,square,circle,0.8,0.2,0.0,square,542.0,positive,0.0,0.0,5,1004,True,PG11_PRL.csv
PG11,80/20,1,18,143250,circle,square,0.2,0.8,1.0,square,798.0,positive,0.0,0.0,5,1014,True,PG11_PRL.csv
PG11,80/20,1,19,146304,square,circle,0.8,0.2,,,,,0.0,0.0,5,1015,True,PG11_PRL.csv
PG11,80/20,1,20,149214,square,circle,0.8,0.2,0.0,square,863.0,positive,0.0,0.0,5,1013,True,PG11_PRL.csv
PG11,80/20,1,1,156901,square,circle,0.8,0.2,,,,,0.0,0.0,5,1015,False,PG11_PRL.csv
PG11,80/20,1,2,159943,circle,square,0.2,0.8,,,,,0.0,0.0,5,1016,False,PG11_PRL.csv
PG11,80/20,1,3,162907,square,circle,0.8,0.2,1.0,circle,927.0,negative,-0.25,-0.25,5,1016,False,PG11_PRL.csv
PG11,80/20,1,4,165946,square,circle,0.8,0.2,,,,,0.0,-0.25,5,1007,False,PG11_PRL.csv
PG11,80/20,1,5,168589,square,circle,0.8,0.2,0.0,square,606.0,negative,-0.25,-0.5,5,1011,False,PG11_PRL.csv
PG11,80/20,1,6,171088,circle,square,0.2,0.8,1.0,square,459.0,positive,0.5,0.0,5,1013,False,PG11_PRL.csv
PG11,80/20,1,7,173727,square,circle,0.8,0.2,0.0,square,615.0,positive,0.5,0.5,5,1001,False,PG11_PRL.csv
PG11,80/20,1,8,176145,circle,square,0.2,0.8,1.0,square,396.0,negative,-0.25,0.25,5,1003,False,PG11_PRL.csv
PG11,80/20,1,9,178510,circle,square,0.2,0.8,1.0,square,323.0,negative,-0.25,0.0,5,1013,False,PG11_PRL.csv
PG11,80/20,1,10,180790,square,circle,0.8,0.2,1.0,circle,246.0,positive,0.5,0.5,5,1001,False,PG11_PRL.csv
PG11,80/20,1,11,183105,circle,square,0.2,0.8,0.0,circle,293.0,negative,-0.25,0.25,5,1004,False,PG11_PRL.csv
PG11,80/20,1,12,185507,circle,square,0.2,0.8,1.0,square,362.0,positive,0.5,0.75,5,1013,False,PG11_PRL.csv
PG11,80/20,1,13,188168,circle,square,0.2,0.8,1.0,square,620.0,positive,0.5,1.25,5,1013,False,PG11_PRL.csv
PG11,80/20,1,14,190632,circle,square,0.2,0.8,1.0,square,423.0,negative,-0.25,1.0,5,1009,False,PG11_PRL.csv
PG11,80/20,1,15,193242,circle,square,0.2,0.8,1.0,square,574.0,positive,0.5,1.5,5,1003,False,PG11_PRL.csv
PG11,80/20,1,16,195494,square,circle,0.8,0.2,0.0,square,227.0,positive,0.5,2.0,5,1004,False,PG11_PRL.csv
PG11,80/20,1,17,197808,circle,square,0.2,0.8,1.0,square,294.0,positive,0.5,2.5,5,1004,False,PG11_PRL.csv
PG11,80/20,1,18,200505,square,circle,0.8,0.2,0.0,square,655.0,positive,0.5,3.0,5,1009,False,PG11_PRL.csv
PG11,80/20,1,19,203187,circle,square,0.2,0.8,1.0,square,661.0,positive,0.5,3.5,5,1003,False,PG11_PRL.csv
PG11,80/20,1,20,205498,square,circle,0.8,0.2,0.0,square,293.0,positive,0.5,4.0,5,1005,False,PG11_PRL.csv
PG11,80/20,1,21,207886,square,circle,0.8,0.2,0.0,square,357.0,positive,0.5,4.5,5,1010,False,PG11_PRL.csv
PG11,80/20,1,22,210299,square,circle,0.8,0.2,0.0,square,373.0,positive,0.5,5.0,5,1010,False,PG11_PRL.csv
PG11,80/20,1,23,212726,circle,square,0.2,0.8,1.0,square,393.0,positive,0.5,5.5,5,1015,False,PG11_PRL.csv
PG11,80/20,1,24,215118,square,circle,0.8,0.2,0.0,square,373.0,positive,0.5,6.0,5,1000,False,PG11_PRL.csv
PG11,80/20,1,25,217453,circle,square,0.2,0.8,1.0,square,308.0,negative,-0.25,5.75,5,1009,False,PG11_PRL.csv
PG11,80/20,1,26,219874,square,circle,0.8,0.2,0.0,square,390.0,positive,0.5,6.25,5,1015,False,PG11_PRL.csv
PG11,80/20,1,27,222239,square,circle,0.8,0.2,0.0,square,326.0,positive,0.5,6.75,5,1016,False,PG11_PRL.csv
PG11,80/20,1,28,224604,circle,square,0.2,0.8,1.0,square,330.0,negative,-0.25,6.5,5,1015,False,PG11_PRL.csv
PG11,80/20,1,29,226967,circle,square,0.2,0.8,0.0,circle,325.0,positive,0.5,7.0,5,1015,False,PG11_PRL.csv
PG11,80/20,1,30,229316,circle,square,0.2,0.8,0.0,circle,312.0,negative,-0.25,6.75,5,1003,False,PG11_PRL.csv
PG11,80/20,1,31,231733,square,circle,0.8,0.2,0.0,square,402.0,negative,-0.25,6.5,5,1004,False,PG11_PRL.csv
PG11,80/20,1,32,234041,circle,square,0.2,0.8,1.0,square,264.0,positive,0.5,7.0,5,1012,False,PG11_PRL.csv
PG11,80/20,1,33,236597,circle,square,0.2,0.8,1.0,square,531.0,negative,-0.25,6.75,5,1005,False,PG11_PRL.csv
PG11,80/20,1,34,238973,square,circle,0.8,0.2,1.0,circle,348.0,negative,-0.25,6.5,5,1002,False,PG11_PRL.csv
PG11,80/20,1,35,241330,circle,square,0.2,0.8,1.0,square,329.0,negative,-0.25,6.25,5,1007,False,PG11_PRL.csv
PG11,80/20,1,36,243718,square,circle,0.8,0.2,0.0,square,348.0,positive,0.5,6.75,5,1015,False,PG11_PRL.csv
PG11,80/20,1,37,246759,square,circle,0.8,0.2,,,,,0.0,6.75,5,1015,False,PG11_PRL.csv
PG11,80/20,1,38,249257,square,circle,0.8,0.2,0.0,square,465.0,negative,-0.25,6.5,5,1007,False,PG11_PRL.csv
PG11,80/20,1,39,251928,square,circle,0.8,0.2,0.0,square,636.0,positive,0.5,7.0,5,1015,False,PG11_PRL.csv
PG11,80/20,1,40,254443,circle,square,0.2,0.8,0.0,circle,497.0,negative,-0.25,6.75,5,1001,False,PG11_PRL.csv
PG11,80/20,1,41,256941,circle,square,0.2,0.8,1.0,square,469.0,positive,0.5,7.25,5,1000,False,PG11_PRL.csv
PG11,80/20,1,42,259687,square,circle,0.8,0.2,0.0,square,710.0,positive,0.5,7.75,5,1004,False,PG11_PRL.csv
PG11,80/20,1,43,262239,square,circle,0.8,0.2,0.0,square,529.0,negative,-0.25,7.5,5,1003,False,PG11_PRL.csv
PG11,80/20,1,44,265001,square,circle,0.8,0.2,1.0,circle,732.0,negative,-0.25,7.25,5,1001,False,PG11_PRL.csv
PG11,80/20,1,45,267569,square,circle,0.8,0.2,1.0,circle,541.0,positive,0.5,7.75,5,1012,False,PG11_PRL.csv
PG11,80/20,1,46,269962,square,circle,0.8,0.2,0.0,square,361.0,positive,0.5,8.25,5,1014,False,PG11_PRL.csv
PG11,80/20,1,47,272325,square,circle,0.8,0.2,0.0,square,345.0,positive,0.5,8.75,5,1001,False,PG11_PRL.csv
PG11,80/20,1,48,274708,circle,square,0.2,0.8,0.0,circle,359.0,negative,-0.25,8.5,5,1005,False,PG11_PRL.csv
PG11,80/20,1,49,277153,circle,square,0.2,0.8,1.0,square,424.0,negative,-0.25,8.25,5,1004,False,PG11_PRL.csv
PG11,80/20,1,50,279602,square,circle,0.8,0.2,0.0,square,414.0,positive,0.5,8.75,5,1006,False,PG11_PRL.csv
PG11,80/20,1,51,282165,square,circle,0.8,0.2,0.0,square,531.0,positive,0.5,9.25,5,1006,False,PG11_PRL.csv
PG11,80/20,1,52,284591,circle,square,0.2,0.8,1.0,square,393.0,negative,-0.25,9.0,5,1008,False,PG11_PRL.csv
PG11,80/20,1,53,287047,circle,square,0.2,0.8,1.0,square,423.0,positive,0.5,9.5,5,1014,False,PG11_PRL.csv
PG11,80/20,1,54,289411,square,circle,0.8,0.2,0.0,square,332.0,positive,0.5,10.0,5,1000,False,PG11_PRL.csv
PG11,80/20,1,55,292007,circle,square,0.2,0.8,1.0,square,569.0,negative,-0.25,9.75,5,1008,False,PG11_PRL.csv
PG11,80/20,1,56,294333,circle,square,0.2,0.8,1.0,square,297.0,positive,0.5,10.25,5,1005,False,PG11_PRL.csv
PG11,80/20,1,57,296673,circle,square,0.2,0.8,1.0,square,314.0,positive,0.5,10.75,5,1001,False,PG11_PRL.csv
PG11,80/20,1,58,299069,circle,square,0.2,0.8,1.0,square,373.0,positive,0.5,11.25,5,1000,False,PG11_PRL.csv
PG11,80/20,1,59,301477,circle,square,0.2,0.8,1.0,square,393.0,negative,-0.25,11.0,5,1000,False,PG11_PRL.csv
PG11,80/20,1,60,303933,square,circle,0.8,0.2,0.0,square,426.0,positive,0.5,11.5,5,1001,False,PG11_PRL.csv
PG11,50/50,2,1,311378,square,circle,0.5,0.5,0.0,square,867.0,positive,0.5,12.0,5,1001,False,PG11_PRL.csv
PG11,50/50,2,2,313860,square,circle,0.5,0.5,0.0,square,442.0,positive,0.5,12.5,5,1010,False,PG11_PRL.csv
PG11,50/50,2,3,316237,square,circle,0.5,0.5,0.0,square,348.0,positive,0.5,13.0,5,1014,False,PG11_PRL.csv
PG11,50/50,2,4,318564,square,circle,0.5,0.5,0.0,square,298.0,positive,0.5,13.5,5,1011,False,PG11_PRL.csv
PG11,50/50,2,5,320900,circle,square,0.5,0.5,1.0,square,308.0,positive,0.5,14.0,5,1014,False,PG11_PRL.csv
PG11,50/50,2,6,323588,circle,square,0.5,0.5,1.0,square,653.0,positive,0.5,14.5,5,1016,False,PG11_PRL.csv
PG11,50/50,2,7,325930,square,circle,0.5,0.5,0.0,square,313.0,negative,-0.25,14.25,5,1000,False,PG11_PRL.csv
PG11,50/50,2,8,328262,square,circle,0.5,0.5,0.0,square,312.0,negative,-0.25,14.0,5,1000,False,PG11_PRL.csv
PG11,50/50,2,9,330593,square,circle,0.5,0.5,0.0,square,307.0,negative,-0.25,13.75,5,1004,False,PG11_PRL.csv
PG11,50/50,2,10,332908,square,circle,0.5,0.5,0.0,square,281.0,negative,-0.25,13.5,5,1016,False,PG11_PRL.csv
PG11,50/50,2,11,335416,circle,square,0.5,0.5,0.0,circle,480.0,positive,0.5,14.0,5,1010,False,PG11_PRL.csv
PG11,50/50,2,12,337769,square,circle,0.5,0.5,1.0,circle,315.0,positive,0.5,14.5,5,1014,False,PG11_PRL.csv
PG11,50/50,2,13,339967,circle,square,0.5,0.5,0.0,circle,166.0,positive,0.5,15.0,5,1015,False,PG11_PRL.csv
PG11,50/50,2,14,342831,square,circle,0.5,0.5,1.0,circle,842.0,positive,0.5,15.5,5,1003,False,PG11_PRL.csv
PG11,50/50,2,15,345246,circle,square,0.5,0.5,0.0,circle,383.0,positive,0.5,16.0,5,1015,False,PG11_PRL.csv
PG11,50/50,2,16,347673,circle,square,0.5,0.5,0.0,circle,409.0,positive,0.5,16.5,5,1001,False,PG11_PRL.csv
PG11,50/50,2,17,350409,circle,square,0.5,0.5,0.0,circle,704.0,positive,0.5,17.0,5,1015,False,PG11_PRL.csv
PG11,50/50,2,18,352978,square,circle,0.5,0.5,1.0,circle,543.0,positive,0.5,17.5,5,1001,False,PG11_PRL.csv
PG11,50/50,2,19,355588,circle,square,0.5,0.5,1.0,square,571.0,positive,0.5,18.0,5,1015,False,PG11_PRL.csv
PG11,50/50,2,20,357907,circle,square,0.5,0.5,0.0,circle,295.0,positive,0.5,18.5,5,1000,False,PG11_PRL.csv
PG11,50/50,2,21,360250,circle,square,0.5,0.5,1.0,square,310.0,positive,0.5,19.0,5,1014,False,PG11_PRL.csv
PG11,50/50,2,22,362570,circle,square,0.5,0.5,0.0,circle,299.0,positive,0.5,19.5,5,1002,False,PG11_PRL.csv
PG11,50/50,2,23,365073,square,circle,0.5,0.5,1.0,circle,476.0,positive,0.5,20.0,5,1010,False,PG11_PRL.csv
PG11,50/50,2,24,367368,square,circle,0.5,0.5,0.0,square,268.0,positive,0.5,20.5,5,1005,False,PG11_PRL.csv
PG11,50/50,2,25,369741,square,circle,0.5,0.5,1.0,circle,358.0,negative,-0.25,20.25,5,1001,False,PG11_PRL.csv
PG11,50/50,2,26,372100,circle,square,0.5,0.5,0.0,circle,325.0,negative,-0.25,20.0,5,1009,False,PG11_PRL.csv
PG11,50/50,2,27,374489,square,circle,0.5,0.5,1.0,circle,342.0,negative,-0.25,19.75,5,1015,False,PG11_PRL.csv
PG11,50/50,2,28,376779,square,circle,0.5,0.5,0.0,square,247.0,negative,-0.25,19.5,5,1016,False,PG11_PRL.csv
PG11,50/50,2,29,379499,circle,square,0.5,0.5,1.0,square,675.0,positive,0.5,20.0,5,1015,False,PG11_PRL.csv
PG11,50/50,2,30,382014,circle,square,0.5,0.5,0.0,circle,465.0,negative,-0.25,19.75,5,1015,False,PG11_PRL.csv
PG11,50/50,2,31,384526,square,circle,0.5,0.5,1.0,circle,478.0,negative,-0.25,19.5,5,1013,False,PG11_PRL.csv
PG11,50/50,2,32,386970,circle,square,0.5,0.5,1.0,square,410.0,negative,-0.25,19.25,5,1015,False,PG11_PRL.csv
PG11,50/50,2,33,389253,circle,square,0.5,0.5,0.0,circle,248.0,positive,0.5,19.75,5,1010,False,PG11_PRL.csv
PG11,50/50,2,34,391865,circle,square,0.5,0.5,0.0,circle,588.0,positive,0.5,20.25,5,1002,False,PG11_PRL.csv
PG11,50/50,2,35,394190,circle,square,0.5,0.5,0.0,circle,293.0,positive,0.5,20.75,5,1003,False,PG11_PRL.csv
PG11,50/50,2,36,396591,square,circle,0.5,0.5,1.0,circle,375.0,negative,-0.25,20.5,5,1001,False,PG11_PRL.csv
PG11,50/50,2,37,398881,circle,square,0.5,0.5,0.0,circle,262.0,positive,0.5,21.0,5,1012,False,PG11_PRL.csv
PG11,50/50,2,38,401490,square,circle,0.5,0.5,0.0,square,592.0,negative,-0.25,20.75,5,1001,False,PG11_PRL.csv
PG11,50/50,2,39,404161,square,circle,0.5,0.5,1.0,circle,653.0,negative,-0.25,20.5,5,1000,False,PG11_PRL.csv
PG11,50/50,2,40,407013,square,circle,0.5,0.5,1.0,circle,808.0,positive,0.5,21.0,5,1010,False,PG11_PRL.csv
PG11,50/50,2,41,409906,circle,square,0.5,0.5,1.0,square,850.0,negative,-0.25,20.75,5,1014,False,PG11_PRL.csv
PG11,50/50,2,42,412462,square,circle,0.5,0.5,1.0,circle,531.0,negative,-0.25,20.5,5,1004,False,PG11_PRL.csv
PG11,50/50,2,43,414929,square,circle,0.5,0.5,0.0,square,441.0,negative,-0.25,20.25,5,1004,False,PG11_PRL.csv
PG11,50/50,2,44,417964,square,circle,0.5,0.5,,,,,0.0,20.25,5,1000,False,PG11_PRL.csv
PG11,50/50,2,45,420734,square,circle,0.5,0.5,1.0,circle,750.0,positive,0.5,20.75,5,1002,False,PG11_PRL.csv
PG11,50/50,2,46,423286,circle,square,0.5,0.5,0.0,circle,512.0,negative,-0.25,20.5,5,1011,False,PG11_PRL.csv
PG11,50/50,2,47,425829,square,circle,0.5,0.5,1.0,circle,514.0,positive,0.5,21.0,5,1003,False,PG11_PRL.csv
PG11,50/50,2,48,428357,circle,square,0.5,0.5,0.0,circle,493.0,positive,0.5,21.5,5,1014,False,PG11_PRL.csv
PG11,50/50,2,49,430670,square,circle,0.5,0.5,0.0,square,278.0,negative,-0.25,21.25,5,1002,False,PG11_PRL.csv
PG11,50/50,2,50,433400,square,circle,0.5,0.5,1.0,circle,701.0,positive,0.5,21.75,5,1010,False,PG11_PRL.csv
PG11,50/50,2,51,435785,square,circle,0.5,0.5,1.0,circle,364.0,negative,-0.25,21.5,5,1001,False,PG11_PRL.csv
PG11,50/50,2,52,438281,square,circle,0.5,0.5,0.0,square,456.0,negative,-0.25,21.25,5,1014,False,PG11_PRL.csv
PG11,50/50,2,53,440582,square,circle,0.5,0.5,1.0,circle,259.0,positive,0.5,21.75,5,1014,False,PG11_PRL.csv
PG11,50/50,2,54,442976,square,circle,0.5,0.5,1.0,circle,358.0,positive,0.5,22.25,5,1013,False,PG11_PRL.csv
PG11,50/50,2,55,445413,square,circle,0.5,0.5,1.0,circle,411.0,negative,-0.25,22.0,5,1004,False,PG11_PRL.csv
PG11,50/50,2,56,447822,circle,square,0.5,0.5,0.0,circle,373.0,negative,-0.25,21.75,5,1014,False,PG11_PRL.csv
PG11,50/50,2,57,450138,circle,square,0.5,0.5,1.0,square,279.0,negative,-0.25,21.5,5,1011,False,PG11_PRL.csv
PG11,50/50,2,58,452404,square,circle,0.5,0.5,0.0,square,228.0,positive,0.5,22.0,5,1013,False,PG11_PRL.csv
PG11,50/50,2,59,454740,circle,square,0.5,0.5,0.0,circle,311.0,negative,-0.25,21.75,5,1009,False,PG11_PRL.csv
PG11,50/50,2,60,457038,square,circle,0.5,0.5,1.0,circle,262.0,negative,-0.25,21.5,5,1007,False,PG11_PRL.csv
PG12,80/20,1,1,62722,square,circle,0.8,0.2,,,,,0.0,0.0,5,1000,True,PG12_PRL.csv
PG12,80/20,1,2,65797,square,circle,0.8,0.2,,,,,0.0,0.0,5,1005,True,PG12_PRL.csv
PG12,80/20,1,3,68430,circle,square,0.2,0.8,1.0,square,546.0,positive,0.0,0.0,5,1013,True,PG12_PRL.csv
PG12,80/20,1,4,71528,square,circle,0.8,0.2,,,,,0.0,0.0,5,1012,True,PG12_PRL.csv
PG12,80/20,1,5,74092,square,circle,0.8,0.2,0.0,square,485.0,negative,0.0,0.0,5,1000,True,PG12_PRL.csv
PG12,80/20,1,6,76800,square,circle,0.8,0.2,1.0,circle,634.0,positive,0.0,0.0,5,1008,True,PG12_PRL.csv
PG12,80/20,1,7,79321,square,circle,0.8,0.2,1.0,circle,432.0,negative,0.0,0.0,5,1010,True,PG12_PRL.csv
PG12,80/20,1,8,81977,circle,square,0.2,0.8,1.0,square,574.0,positive,0.0,0.0,5,1004,True,PG12_PRL.csv
PG12,80/20,1,9,84189,square,circle,0.8,0.2,1.0,circle,135.0,negative,0.0,0.0,5,1011,True,PG12_PRL.csv
PG12,80/20,1,10,86872,circle,square,0.2,0.8,1.0,square,595.0,negative,0.0,0.0,5,1014,True,PG12_PRL.csv
PG12,80/20,1,11,89333,circle,square,0.2,0.8,0.0,circle,380.0,negative,0.0,0.0,5,1003,True,PG12_PRL.csv
PG12,80/20,1,12,91913,circle,square,0.2,0.8,0.0,circle,496.0,positive,0.0,0.0,5,1003,True,PG12_PRL.csv
PG12,80/20,1,13,94076,circle,square,0.2,0.8,1.0,square,82.0,positive,0.0,0.0,5,1007,True,PG12_PRL.csv
PG12,80/20,1,14,96529,square,circle,0.8,0.2,0.0,square,382.0,positive,0.0,0.0,5,1005,True,PG12_PRL.csv
PG12,80/20,1,15,99297,square,circle,0.8,0.2,1.0,circle,682.0,negative,0.0,0.0,5,1007,True,PG12_PRL.csv
PG12,80/20,1,16,101796,square,circle,0.8,0.2,1.0,circle,415.0,negative,0.0,0.0,5,1008,True,PG12_PRL.csv
PG12,80/20,1,17,104074,square,circle,0.8,0.2,0.0,square,200.0,positive,0.0,0.0,5,1001,True,PG12_PRL.csv
PG12,80/20,1,18,106848,square,circle,0.8,0.2,0.0,square,693.0,positive,0.0,0.0,5,1012,True,PG12_PRL.csv
PG12,80/20,1,19,109572,circle,square,0.2,0.8,1.0,square,631.0,positive,0.0,0.0,5,1010,True,PG12_PRL.csv
PG12,80/20,1,20,112194,square,circle,0.8,0.2,1.0,circle,535.0,negative,0.0,0.0,5,1004,True,PG12_PRL.csv
PG12,80/20,1,1,130257,square,circle,0.8,0.2,,,,,0.0,0.0,5,1016,False,PG12_PRL.csv
PG12,80/20,1,2,132922,square,circle,0.8,0.2,0.0,square,580.0,positive,0.5,0.5,5,1010,False,PG12_PRL.csv
PG12,80/20,1,3,135526,square,circle,0.8,0.2,0.0,square,531.0,negative,-0.25,0.25,5,1006,False,PG12_PRL.csv
PG12,80/20,1,4,138169,circle,square,0.2,0.8,0.0,circle,548.0,negative,-0.25,0.0,5,1015,False,PG12_PRL.csv
PG12,80/20,1,5,140849,square,circle,0.8,0.2,1.0,circle,597.0,positive,0.5,0.5,5,1001,False,PG12_PRL.csv
PG12,80/20,1,6,143591,circle,square,0.2,0.8,1.0,square,658.0,positive,0.5,1.0,5,1004,False,PG12_PRL.csv
PG12,80/20,1,7,146261,square,circle,0.8,0.2,1.0,circle,582.0,negative,-0.25,0.75,5,1012,False,PG12_PRL.csv
PG12,80/20,1,8,148804,square,circle,0.8,0.2,1.0,circle,449.0,negative,-0.25,0.5,5,1015,False,PG12_PRL.csv
PG12,80/20,1,9,151456,circle,square,0.2,0.8,0.0,circle,583.0,negative,-0.25,0.25,5,1000,False,PG12_PRL.csv
PG12,80/20,1,10,153835,circle,square,0.2,0.8,1.0,square,284.0,positive,0.5,0.75,5,1015,False,PG12_PRL.csv
PG12,80/20,1,11,156392,square,circle,0.8,0.2,0.0,square,484.0,negative,-0.25,0.5,5,1002,False,PG12_PRL.csv
PG12,80/20,1,12,159151,circle,square,0.2,0.8,0.0,circle,665.0,negative,-0.25,0.25,5,1012,False,PG12_PRL.csv
PG12,80/20,1,13,161755,circle,square,0.2,0.8,1.0,square,515.0,positive,0.5,0.75,5,1010,False,PG12_PRL.csv
PG12,80/20,1,14,164335,square,circle,0.8,0.2,1.0,circle,500.0,negative,-0.25,0.5,5,1013,False,PG12_PRL.csv
PG12,80/20,1,15,166777,square,circle,0.8,0.2,0.0,square,349.0,positive,0.5,1.0,5,1009,False,PG12_PRL.csv
PG12,80/20,1,16,169241,circle,square,0.2,0.8,1.0,square,395.0,positive,0.5,1.5,5,1001,False,PG12_PRL.csv
PG12,80/20,1,17,171656,circle,square,0.2,0.8,1.0,square,332.0,positive,0.5,2.0,5,1015,False,PG12_PRL.csv
PG12,80/20,1,18,174171,square,circle,0.8,0.2,0.0,square,432.0,negative,-0.25,1.75,5,1000,False,PG12_PRL.csv
PG12,80/20,1,19,176755,circle,square,0.2,0.8,0.0,circle,513.0,negative,-0.25,1.5,5,1004,False,PG12_PRL.csv
PG12,80/20,1,20,179468,square,circle,0.8,0.2,0.0,square,639.0,positive,0.5,2.0,5,1005,False,PG12_PRL.csv
PG12,80/20,1,21,182055,square,circle,0.8,0.2,0.0,square,513.0,positive,0.5,2.5,5,1005,False,PG12_PRL.csv
PG12,80/20,1,22,184750,square,circle,0.8,0.2,0.0,square,608.0,positive,0.5,3.0,5,1013,False,PG12_PRL.csv
PG12,80/20,1,23,187153,square,circle,0.8,0.2,0.0,square,330.0,positive,0.5,3.5,5,1002,False,PG12_PRL.csv
PG12,80/20,1,24,189583,circle,square,0.2,0.8,1.0,square,346.0,negative,-0.25,3.25,5,1007,False,PG12_PRL.csv
PG12,80/20,1,25,192154,circle,square,0.2,0.8,0.0,circle,480.0,negative,-0.25,3.0,5,1014,False,PG12_PRL.csv
PG12,80/20,1,26,195069,circle,square,0.2,0.8,1.0,square,834.0,positive,0.5,3.5,5,1009,False,PG12_PRL.csv
PG12,80/20,1,27,197644,square,circle,0.8,0.2,0.0,square,500.0,positive,0.5,4.0,5,1009,False,PG12_PRL.csv
PG12,80/20,1,28,200109,square,circle,0.8,0.2,0.0,square,377.0,positive,0.5,4.5,5,1008,False,PG12_PRL.csv
PG12,80/20,1,29,202537,square,circle,0.8,0.2,0.0,square,347.0,positive,0.5,5.0,5,1014,False,PG12_PRL.csv
PG12,80/20,1,30,204980,square,circle,0.8,0.2,0.0,square,366.0,positive,0.5,5.5,5,1010,False,PG12_PRL.csv
PG12,80/20,1,31,207549,circle,square,0.2,0.8,1.0,square,483.0,positive,0.5,6.0,5,1010,False,PG12_PRL.csv
PG12,80/20,1,32,209981,square,circle,0.8,0.2,0.0,square,349.0,positive,0.5,6.5,5,1012,False,PG12_PRL.csv
PG12,80/20,1,33,212442,square,circle,0.8,0.2,0.0,square,379.0,positive,0.5,7.0,5,1010,False,PG12_PRL.csv
PG12,80/20,1,34,214874,circle,square,0.2,0.8,1.0,square,349.0,positive,0.5,7.5,5,1011,False,PG12_PRL.csv
PG12,80/20,1,35,217280,square,circle,0.8,0.2,0.0,square,328.0,positive,0.5,8.0,5,1003,False,PG12_PRL.csv
PG12,80/20,1,36,219666,square,circle,0.8,0.2,0.0,square,295.0,negative,-0.25,7.75,5,1015,False,PG12_PRL.csv
PG12,80/20,1,37,222243,square,circle,0.8,0.2,0.0,square,491.0,positive,0.5,8.25,5,1010,False,PG12_PRL.csv
PG12,80/20,1,38,224610,circle,square,0.2,0.8,1.0,square,281.0,positive,0.5,8.75,5,1006,False,PG12_PRL.csv
PG12,80/20,1,39,226985,square,circle,0.8,0.2,0.0,square,281.0,positive,0.5,9.25,5,1015,False,PG12_PRL.csv
PG12,80/20,1,40,229288,square,circle,0.8,0.2,0.0,square,217.0,positive,0.5,9.75,5,1006,False,PG12_PRL.csv
PG12,80/20,1,41,231689,circle,square,0.2,0.8,1.0,square,315.0,positive,0.5,10.25,5,1006,False,PG12_PRL.csv
PG12,80/20,1,42,234052,circle,square,0.2,0.8,1.0,square,265.0,positive,0.5,10.75,5,1012,False,PG12_PRL.csv
PG12,80/20,1,43,236434,square,circle,0.8,0.2,0.0,square,299.0,positive,0.5,11.25,5,1011,False,PG12_PRL.csv
PG12,80/20,1,44,238812,square,circle,0.8,0.2,0.0,square,296.0,positive,0.5,11.75,5,1007,False,PG12_PRL.csv
PG12,80/20,1,45,241123,circle,square,0.2,0.8,1.0,square,232.0,positive,0.5,12.25,5,1015,False,PG12_PRL.csv
PG12,80/20,1,46,243353,square,circle,0.8,0.2,0.0,square,146.0,positive,0.5,12.75,5,1000,False,PG12_PRL.csv
PG12,80/20,1,47,245690,circle,square,0.2,0.8,1.0,square,247.0,positive,0.5,13.25,5,1013,False,PG12_PRL.csv
PG12,80/20,1,48,248005,circle,square,0.2,0.8,1.0,square,220.0,positive,0.5,13.75,5,1014,False,PG12_PRL.csv
PG12,80/20,1,49,250339,circle,square,0.2,0.8,1.0,square,248.0,negative,-0.25,13.5,5,1004,False,PG12_PRL.csv
PG12,80/20,1,50,252627,circle,square,0.2,0.8,1.0,square,198.0,negative,-0.25,13.25,5,1011,False,PG12_PRL.csv
PG12,80/20,1,51,255027,square,circle,0.8,0.2,0.0,square,314.0,positive,0.5,13.75,5,1007,False,PG12_PRL.csv
PG12,80/20,1,52,257378,square,circle,0.8,0.2,0.0,square,260.0,positive,0.5,14.25,5,1015,False,PG12_PRL.csv
PG12,80/20,1,53,259748,circle,square,0.2,0.8,1.0,square,281.0,positive,0.5,14.75,5,1011,False,PG12_PRL.csv
PG12,80/20,1,54,262038,square,circle,0.8,0.2,0.0,square,216.0,positive,0.5,15.25,5,1001,False,PG12_PRL.csv
PG12,80/20,1,55,264406,square,circle,0.8,0.2,0.0,square,283.0,positive,0.5,15.75,5,1003,False,PG12_PRL.csv
PG12,80/20,1,56,266640,circle,square,0.2,0.8,1.0,square,149.0,negative,-0.25,15.5,5,1009,False,PG12_PRL.csv
PG12,80/20,1,57,269041,square,circle,0.8,0.2,0.0,square,316.0,positive,0.5,16.0,5,1014,False,PG12_PRL.csv
PG12,80/20,1,58,271410,circle,square,0.2,0.8,0.0,circle,276.0,negative,-0.25,15.75,5,1015,False,PG12_PRL.csv
PG12,80/20,1,59,273754,circle,square,0.2,0.8,1.0,square,261.0,positive,0.5,16.25,5,1008,False,PG12_PRL.csv
PG12,80/20,1,60,276105,square,circle,0.8,0.2,0.0,square,275.0,negative,-0.25,16.0,5,1008,False,PG12_PRL.csv
PG12,50/50,2,1,290782,square,circle,0.5,0.5,0.0,square,496.0,positive,0.5,16.5,5,1011,False,PG12_PRL.csv
PG12,50/50,2,2,293106,square,circle,0.5,0.5,0.0,square,235.0,positive,0.5,17.0,5,1015,False,PG12_PRL.csv
PG12,50/50,2,3,295456,square,circle,0.5,0.5,0.0,square,265.0,negative,-0.25,16.75,5,1014,False,PG12_PRL.csv
PG12,50/50,2,4,297766,circle,square,0.5,0.5,1.0,square,232.0,negative,-0.25,16.5,5,1010,False,PG12_PRL.csv
PG12,50/50,2,5,300130,circle,square,0.5,0.5,1.0,square,283.0,positive,0.5,17.0,5,1007,False,PG12_PRL.csv
PG12,50/50,2,6,302542,square,circle,0.5,0.5,0.0,square,329.0,positive,0.5,17.5,5,1007,False,PG12_PRL.csv
PG12,50/50,2,7,305120,circle,square,0.5,0.5,1.0,square,497.0,positive,0.5,18.0,5,1007,False,PG12_PRL.csv
PG12,50/50,2,8,307531,circle,square,0.5,0.5,1.0,square,330.0,positive,0.5,18.5,5,1006,False,PG12_PRL.csv
PG12,50/50,2,9,309863,square,circle,0.5,0.5,0.0,square,250.0,negative,-0.25,18.25,5,1009,False,PG12_PRL.csv
PG12,50/50,2,10,312214,circle,square,0.5,0.5,1.0,square,264.0,positive,0.5,18.75,5,1013,False,PG12_PRL.csv
PG12,50/50,2,11,314555,circle,square,0.5,0.5,1.0,square,262.0,positive,0.5,19.25,5,1002,False,PG12_PRL.csv
PG12,50/50,2,12,316855,square,circle,0.5,0.5,0.0,square,211.0,negative,-0.25,19.0,5,1007,False,PG12_PRL.csv
PG12,50/50,2,13,319141,circle,square,0.5,0.5,1.0,square,198.0,positive,0.5,19.5,5,1012,False,PG12_PRL.csv
PG12,50/50,2,14,321450,circle,square,0.5,0.5,1.0,square,232.0,negative,-0.25,19.25,5,1005,False,PG12_PRL.csv
PG12,50/50,2,15,323808,circle,square,0.5,0.5,1.0,square,270.0,positive,0.5,19.75,5,1016,False,PG12_PRL.csv
PG12,50/50,2,16,326113,circle,square,0.5,0.5,1.0,square,230.0,positive,0.5,20.25,5,1001,False,PG12_PRL.csv
PG12,50/50,2,17,328238,square,circle,0.5,0.5,1.0,circle,49.0,negative,-0.25,20.0,5,1001,False,PG12_PRL.csv
PG12,50/50,2,18,330507,square,circle,0.5,0.5,0.0,square,183.0,negative,-0.25,19.75,5,1015,False,PG12_PRL.csv
PG12,50/50,2,19,332972,circle,square,0.5,0.5,1.0,square,378.0,negative,-0.25,19.5,5,1013,False,PG12_PRL.csv
PG12,50/50,2,20,335326,square,circle,0.5,0.5,0.0,square,268.0,positive,0.5,20.0,5,1006,False,PG12_PRL.csv
PG12,50/50,2,21,337673,square,circle,0.5,0.5,0.0,square,265.0,positive,0.5,20.5,5,1000,False,PG12_PRL.csv
PG12,50/50,2,22,340072,square,circle,0.5,0.5,0.0,square,310.0,positive,0.5,21.0,5,1009,False,PG12_PRL.csv
PG12,50/50,2,23,342441,circle,square,0.5,0.5,1.0,square,281.0,negative,-0.25,20.75,5,1011,False,PG12_PRL.csv
PG12,50/50,2,24,344803,circle,square,0.5,0.5,1.0,square,282.0,negative,-0.25,20.5,5,1015,False,PG12_PRL.csv
PG12,50/50,2,25,347026,circle,square,0.5,0.5,1.0,square,133.0,negative,-0.25,20.25,5,1009,False,PG12_PRL.csv
PG12,50/50,2,26,349258,circle,square,0.5,0.5,0.0,circle,149.0,positive,0.5,20.75,5,1007,False,PG12_PRL.csv
PG12,50/50,2,27,351773,square,circle,0.5,0.5,0.0,square,448.0,positive,0.5,21.25,5,1003,False,PG12_PRL.csv
PG12,50/50,2,28,354210,square,circle,0.5,0.5,0.0,square,351.0,positive,0.5,21.75,5,1010,False,PG12_PRL.csv
PG12,50/50,2,29,356519,square,circle,0.5,0.5,0.0,square,216.0,negative,-0.25,21.5,5,1013,False,PG12_PRL.csv
PG12,50/50,2,30,359048,circle,square,0.5,0.5,1.0,square,449.0,negative,-0.25,21.25,5,1009,False,PG12_PRL.csv
PG12,50/50,2,31,361555,square,circle,0.5,0.5,1.0,circle,413.0,negative,-0.25,21.0,5,1015,False,PG12_PRL.csv
PG12,50/50,2,32,364007,circle,square,0.5,0.5,1.0,square,367.0,positive,0.5,21.5,5,1002,False,PG12_PRL.csv
PG12,50/50,2,33,366389,circle,square,0.5,0.5,1.0,square,297.0,negative,-0.25,21.25,5,1008,False,PG12_PRL.csv
PG12,50/50,2,34,368788,circle,square,0.5,0.5,0.0,circle,299.0,positive,0.5,21.75,5,1015,False,PG12_PRL.csv
PG12,50/50,2,35,371392,square,circle,0.5,0.5,0.0,square,532.0,negative,-0.25,21.5,5,1003,False,PG12_PRL.csv
PG12,50/50,2,36,373841,square,circle,0.5,0.5,1.0,circle,363.0,positive,0.5,22.0,5,1005,False,PG12_PRL.csv
PG12,50/50,2,37,376352,square,circle,0.5,0.5,1.0,circle,414.0,positive,0.5,22.5,5,1013,False,PG12_PRL.csv
PG12,50/50,2,38,378805,square,circle,0.5,0.5,1.0,circle,368.0,negative,-0.25,22.25,5,1015,False,PG12_PRL.csv
PG12,50/50,2,39,381123,square,circle,0.5,0.5,0.0,square,233.0,negative,-0.25,22.0,5,1009,False,PG12_PRL.csv
PG12,50/50,2,40,383516,square,circle,0.5,0.5,1.0,circle,301.0,negative,-0.25,21.75,5,1013,False,PG12_PRL.csv
PG12,50/50,2,41,385940,circle,square,0.5,0.5,1.0,square,347.0,negative,-0.25,21.5,5,1000,False,PG12_PRL.csv
PG12,50/50,2,42,388354,circle,square,0.5,0.5,1.0,square,315.0,negative,-0.25,21.25,5,1015,False,PG12_PRL.csv
PG12,50/50,2,43,390723,circle,square,0.5,0.5,0.0,circle,280.0,negative,-0.25,21.0,5,1009,False,PG12_PRL.csv
PG12,50/50,2,44,393153,square,circle,0.5,0.5,0.0,square,346.0,negative,-0.25,20.75,5,1002,False,PG12_PRL.csv
PG12,50/50,2,45,395909,square,circle,0.5,0.5,0.0,square,677.0,positive,0.5,21.25,5,1002,False,PG12_PRL.csv
PG12,50/50,2,46,398352,square,circle,0.5,0.5,0.0,square,364.0,negative,-0.25,21.0,5,1000,False,PG12_PRL.csv
PG12,50/50,2,47,400907,square,circle,0.5,0.5,1.0,circle,481.0,negative,-0.25,20.75,5,1003,False,PG12_PRL.csv
PG12,50/50,2,48,403417,circle,square,0.5,0.5,1.0,square,444.0,positive,0.5,21.25,5,1000,False,PG12_PRL.csv
PG12,50/50,2,49,405806,circle,square,0.5,0.5,1.0,square,316.0,positive,0.5,21.75,5,1000,False,PG12_PRL.csv
PG12,50/50,2,50,408280,square,circle,0.5,0.5,0.0,square,395.0,positive,0.5,22.25,5,1009,False,PG12_PRL.csv
PG12,50/50,2,51,410696,square,circle,0.5,0.5,0.0,square,332.0,negative,-0.25,22.0,5,1011,False,PG12_PRL.csv
PG12,50/50,2,52,413120,circle,square,0.5,0.5,1.0,square,346.0,positive,0.5,22.5,5,1010,False,PG12_PRL.csv
PG12,50/50,2,53,415649,square,circle,0.5,0.5,1.0,circle,448.0,negative,-0.25,22.25,5,1013,False,PG12_PRL.csv
PG12,50/50,2,54,418050,circle,square,0.5,0.5,1.0,square,310.0,positive,0.5,22.75,5,1015,False,PG12_PRL.csv
PG12,50/50,2,55,420428,circle,square,0.5,0.5,1.0,square,298.0,negative,-0.25,22.5,5,1007,False,PG12_PRL.csv
PG12,50/50,2,56,422810,circle,square,0.5,0.5,0.0,circle,299.0,positive,0.5,23.0,5,1008,False,PG12_PRL.csv
PG12,50/50,2,57,425231,circle,square,0.5,0.5,0.0,circle,331.0,negative,-0.25,22.75,5,1010,False,PG12_PRL.csv
PG12,50/50,2,58,427669,square,circle,0.5,0.5,0.0,square,346.0,positive,0.5,23.25,5,1015,False,PG12_PRL.csv
PG12,50/50,2,59,430095,square,circle,0.5,0.5,0.0,square,331.0,positive,0.5,23.75,5,1016,False,PG12_PRL.csv
PG12,50/50,2,60,432460,circle,square,0.5,0.5,1.0,square,279.0,positive,0.5,24.25,5,1011,False,PG12_PRL.csv
PG13,80/20,1,1,199909,circle,square,0.2,0.8,0.0,circle,350.0,negative,0.0,0.0,5,1014,True,PG13_PRL.csv
PG13,80/20,1,2,202992,circle,square,0.2,0.8,,,,,0.0,0.0,5,1014,True,PG13_PRL.csv
PG13,80/20,1,3,206086,square,circle,0.8,0.2,,,,,0.0,0.0,5,1007,True,PG13_PRL.csv
PG13,80/20,1,4,209178,circle,square,0.2,0.8,,,,,0.0,0.0,5,1003,True,PG13_PRL.csv
PG13,80/20,1,5,211878,square,circle,0.8,0.2,0.0,square,617.0,positive,0.0,0.0,5,1007,True,PG13_PRL.csv
PG13,80/20,1,6,213973,square,circle,0.8,0.2,0.0,square,16.0,positive,0.0,0.0,5,1003,True,PG13_PRL.csv
PG13,80/20,1,7,216077,circle,square,0.2,0.8,1.0,square,17.0,positive,0.0,0.0,5,1014,True,PG13_PRL.csv
PG13,80/20,1,8,218547,circle,square,0.2,0.8,1.0,square,383.0,negative,0.0,0.0,5,1007,True,PG13_PRL.csv
PG13,80/20,1,9,220687,square,circle,0.8,0.2,1.0,circle,49.0,positive,0.0,0.0,5,1012,True,PG13_PRL.csv
PG13,80/20,1,10,222860,square,circle,0.8,0.2,1.0,circle,82.0,negative,0.0,0.0,5,1010,True,PG13_PRL.csv
PG13,80/20,1,11,225959,square,circle,0.8,0.2,,,,,0.0,0.0,5,1016,True,PG13_PRL.csv
PG13,80/20,1,12,228598,square,circle,0.8,0.2,1.0,circle,546.0,negative,0.0,0.0,5,1016,True,PG13_PRL.csv
PG13,80/20,1,13,230880,square,circle,0.8,0.2,0.0,square,196.0,positive,0.0,0.0,5,1007,True,PG13_PRL.csv
PG13,80/20,1,14,233267,square,circle,0.8,0.2,0.0,square,295.0,positive,0.0,0.0,5,1015,True,PG13_PRL.csv
PG13,80/20,1,15,236074,circle,square,0.2,0.8,1.0,square,730.0,positive,0.0,0.0,5,1003,True,PG13_PRL.csv
PG13,80/20,1,16,238458,square,circle,0.8,0.2,0.0,square,314.0,positive,0.0,0.0,5,1005,True,PG13_PRL.csv
PG13,80/20,1,17,240710,circle,square,0.2,0.8,1.0,square,164.0,positive,0.0,0.0,5,1010,True,PG13_PRL.csv
PG13,80/20,1,18,243341,circle,square,0.2,0.8,1.0,square,549.0,positive,0.0,0.0,5,1007,True,PG13_PRL.csv
PG13,80/20,1,19,245807,square,circle,0.8,0.2,0.0,square,378.0,positive,0.0,0.0,5,1016,True,PG13_PRL.csv
PG13,80/20,1,20,247995,circle,square,0.2,0.8,1.0,square,99.0,positive,0.0,0.0,5,1014,True,PG13_PRL.csv
PG13,80/20,1,1,269682,square,circle,0.8,0.2,1.0,circle,681.0,negative,-0.25,-0.25,5,1001,False,PG13_PRL.csv
PG13,80/20,1,2,272319,circle,square,0.2,0.8,1.0,square,547.0,positive,0.5,0.25,5,1008,False,PG13_PRL.csv
PG13,80/20,1,3,274815,circle,square,0.2,0.8,1.0,square,413.0,positive,0.5,0.75,5,1011,False,PG13_PRL.csv
PG13,80/20,1,4,277469,circle,square,0.2,0.8,1.0,square,561.0,positive,0.5,1.25,5,1015,False,PG13_PRL.csv
PG13,80/20,1,5,280086,circle,square,0.2,0.8,1.0,square,534.0,positive,0.5,1.75,5,1005,False,PG13_PRL.csv
PG13,80/20,1,6,282600,circle,square,0.2,0.8,1.0,square,419.0,positive,0.5,2.25,5,1010,False,PG13_PRL.csv
PG13,80/20,1,7,285261,circle,square,0.2,0.8,1.0,square,584.0,positive,0.5,2.75,5,1012,False,PG13_PRL.csv
PG13,80/20,1,8,287786,circle,square,0.2,0.8,1.0,square,444.0,positive,0.5,3.25,5,1011,False,PG13_PRL.csv
PG13,80/20,1,9,290441,square,circle,0.8,0.2,0.0,square,563.0,positive,0.5,3.75,5,1011,False,PG13_PRL.csv
PG13,80/20,1,10,292898,circle,square,0.2,0.8,1.0,square,369.0,positive,0.5,4.25,5,1013,False,PG13_PRL.csv
PG13,80/20,1,11,295383,circle,square,0.2,0.8,1.0,square,418.0,negative,-0.25,4.0,5,1002,False,PG13_PRL.csv
PG13,80/20,1,12,297782,circle,square,0.2,0.8,0.0,circle,301.0,negative,-0.25,3.75,5,1012,False,PG13_PRL.csv
PG13,80/20,1,13,300348,circle,square,0.2,0.8,1.0,square,482.0,positive,0.5,4.25,5,1015,False,PG13_PRL.csv
PG13,80/20,1,14,302999,square,circle,0.8,0.2,0.0,square,561.0,positive,0.5,4.75,5,1013,False,PG13_PRL.csv
PG13,80/20,1,15,305710,square,circle,0.8,0.2,0.0,square,634.0,positive,0.5,5.25,5,1009,False,PG13_PRL.csv
PG13,80/20,1,16,308188,circle,square,0.2,0.8,1.0,square,384.0,positive,0.5,5.75,5,1015,False,PG13_PRL.csv
PG13,80/20,1,17,310663,square,circle,0.8,0.2,0.0,square,388.0,positive,0.5,6.25,5,1013,False,PG13_PRL.csv
PG13,80/20,1,18,313275,square,circle,0.8,0.2,0.0,square,531.0,positive,0.5,6.75,5,1013,False,PG13_PRL.csv
PG13,80/20,1,19,315797,circle,square,0.2,0.8,1.0,square,435.0,positive,0.5,7.25,5,1009,False,PG13_PRL.csv
PG13,80/20,1,20,318223,square,circle,0.8,0.2,0.0,square,333.0,positive,0.5,7.75,5,1007,False,PG13_PRL.csv
PG13,80/20,1,21,320839,circle,square,0.2,0.8,1.0,square,522.0,positive,0.5,8.25,5,1013,False,PG13_PRL.csv
PG13,80/20,1,22,323262,circle,square,0.2,0.8,1.0,square,347.0,positive,0.5,8.75,5,1001,False,PG13_PRL.csv
PG13,80/20,1,23,325699,square,circle,0.8,0.2,0.0,square,348.0,positive,0.5,9.25,5,1010,False,PG13_PRL.csv
PG13,80/20,1,24,328176,square,circle,0.8,0.2,0.0,square,394.0,positive,0.5,9.75,5,1009,False,PG13_PRL.csv
PG13,80/20,1,25,330802,square,circle,0.8,0.2,0.0,square,535.0,positive,0.5,10.25,5,1011,False,PG13_PRL.csv
PG13,80/20,1,26,333274,square,circle,0.8,0.2,0.0,square,384.0,negative,-0.25,10.0,5,1015,False,PG13_PRL.csv
PG13,80/20,1,27,335676,circle,square,0.2,0.8,1.0,square,328.0,positive,0.5,10.5,5,1002,False,PG13_PRL.csv
PG13,80/20,1,28,338051,circle,square,0.2,0.8,1.0,square,285.0,negative,-0.25,10.25,5,1013,False,PG13_PRL.csv
PG13,80/20,1,29,340393,circle,square,0.2,0.8,1.0,square,249.0,positive,0.5,10.75,5,1014,False,PG13_PRL.csv
PG13,80/20,1,30,342827,circle,square,0.2,0.8,1.0,square,350.0,positive,0.5,11.25,5,1010,False,PG13_PRL.csv
PG13,80/20,1,31,345110,square,circle,0.8,0.2,0.0,square,195.0,positive,0.5,11.75,5,1010,False,PG13_PRL.csv
PG13,80/20,1,32,347570,circle,square,0.2,0.8,1.0,square,364.0,positive,0.5,12.25,5,1014,False,PG13_PRL.csv
PG13,80/20,1,33,349938,square,circle,0.8,0.2,0.0,square,266.0,negative,-0.25,12.0,5,1017,False,PG13_PRL.csv
PG13,80/20,1,34,352284,circle,square,0.2,0.8,1.0,square,261.0,negative,-0.25,11.75,5,1006,False,PG13_PRL.csv
PG13,80/20,1,35,354663,square,circle,0.8,0.2,0.0,square,300.0,positive,0.5,12.25,5,1006,False,PG13_PRL.csv
PG13,80/20,1,36,357246,circle,square,0.2,0.8,1.0,square,495.0,positive,0.5,12.75,5,1014,False,PG13_PRL.csv
PG13,80/20,1,37,359885,square,circle,0.8,0.2,0.0,square,550.0,positive,0.5,13.25,5,1011,False,PG13_PRL.csv
PG13,80/20,1,38,362240,square,circle,0.8,0.2,0.0,square,266.0,negative,-0.25,13.0,5,1013,False,PG13_PRL.csv
PG13,80/20,1,39,364566,circle,square,0.2,0.8,1.0,square,249.0,positive,0.5,13.5,5,1009,False,PG13_PRL.csv
PG13,80/20,1,40,367108,square,circle,0.8,0.2,0.0,square,452.0,positive,0.5,14.0,5,1014,False,PG13_PRL.csv
PG13,80/20,1,41,369566,circle,square,0.2,0.8,1.0,square,383.0,positive,0.5,14.5,5,1000,False,PG13_PRL.csv
PG13,80/20,1,42,371990,circle,square,0.2,0.8,1.0,square,348.0,positive,0.5,15.0,5,1007,False,PG13_PRL.csv
PG13,80/20,1,43,374453,circle,square,0.2,0.8,1.0,square,385.0,positive,0.5,15.5,5,1008,False,PG13_PRL.csv
PG13,80/20,1,44,376945,circle,square,0.2,0.8,1.0,square,397.0,positive,0.5,16.0,5,1012,False,PG13_PRL.csv
PG13,80/20,1,45,379510,square,circle,0.8,0.2,0.0,square,475.0,positive,0.5,16.5,5,1007,False,PG13_PRL.csv
PG13,80/20,1,46,382607,square,circle,0.8,0.2,,,,,0.0,16.5,5,1008,False,PG13_PRL.csv
PG13,80/20,1,47,385111,circle,square,0.2,0.8,1.0,square,416.0,positive,0.5,17.0,5,1011,False,PG13_PRL.csv
PG13,80/20,1,48,388198,circle,square,0.2,0.8,,,,,0.0,17.0,5,1014,False,PG13_PRL.csv
PG13,80/20,1,49,391286,circle,square,0.2,0.8,,,,,0.0,17.0,5,1014,False,PG13_PRL.csv
PG13,80/20,1,50,394379,square,circle,0.8,0.2,,,,,0.0,17.0,5,1009,False,PG13_PRL.csv
PG13,80/20,1,51,397471,square,circle,0.8,0.2,,,,,0.0,17.0,5,1014,False,PG13_PRL.csv
PG13,80/20,1,52,399884,square,circle,0.8,0.2,0.0,square,330.0,positive,0.5,17.5,5,1006,False,PG13_PRL.csv
PG13,80/20,1,53,402295,square,circle,0.8,0.2,0.0,square,332.0,positive,0.5,18.0,5,1000,False,PG13_PRL.csv
PG13,80/20,1,54,404744,square,circle,0.8,0.2,0.0,square,371.0,positive,0.5,18.5,5,1005,False,PG13_PRL.csv
PG13,80/20,1,55,407088,circle,square,0.2,0.8,1.0,square,248.0,positive,0.5,19.0,5,1013,False,PG13_PRL.csv
PG13,80/20,1,56,409653,square,circle,0.8,0.2,0.0,square,483.0,positive,0.5,19.5,5,1001,False,PG13_PRL.csv
PG13,80/20,1,57,411988,square,circle,0.8,0.2,1.0,circle,252.0,negative,-0.25,19.25,5,1007,False,PG13_PRL.csv
PG13,80/20,1,58,414407,circle,square,0.2,0.8,1.0,square,332.0,positive,0.5,19.75,5,1010,False,PG13_PRL.csv
PG13,80/20,1,59,416797,circle,square,0.2,0.8,1.0,square,300.0,negative,-0.25,19.5,5,1012,False,PG13_PRL.csv
PG13,80/20,1,60,419116,square,circle,0.8,0.2,0.0,square,234.0,positive,0.5,20.0,5,1014,False,PG13_PRL.csv
PG13,50/50,2,1,460837,square,circle,0.5,0.5,0.0,square,498.0,negative,-0.25,19.75,5,1008,False,PG13_PRL.csv
PG13,50/50,2,2,462952,circle,square,0.5,0.5,1.0,square,32.0,positive,0.5,20.25,5,1010,False,PG13_PRL.csv
PG13,50/50,2,3,465403,circle,square,0.5,0.5,1.0,square,369.0,negative,-0.25,20.0,5,1005,False,PG13_PRL.csv
PG13,50/50,2,4,467583,square,circle,0.5,0.5,0.0,square,100.0,positive,0.5,20.5,5,1012,False,PG13_PRL.csv
PG13,50/50,2,5,470105,square,circle,0.5,0.5,0.0,square,432.0,negative,-0.25,20.25,5,1013,False,PG13_PRL.csv
PG13,50/50,2,6,472504,circle,square,0.5,0.5,1.0,square,312.0,positive,0.5,20.75,5,1008,False,PG13_PRL.csv
PG13,50/50,2,7,474982,circle,square,0.5,0.5,1.0,square,400.0,positive,0.5,21.25,5,1005,False,PG13_PRL.csv
PG13,50/50,2,8,477278,square,circle,0.5,0.5,0.0,square,202.0,negative,-0.25,21.0,5,1014,False,PG13_PRL.csv
PG13,50/50,2,9,479659,circle,square,0.5,0.5,1.0,square,300.0,negative,-0.25,20.75,5,1008,False,PG13_PRL.csv
PG13,50/50,2,10,482016,circle,square,0.5,0.5,1.0,square,266.0,positive,0.5,21.25,5,1009,False,PG13_PRL.csv
PG13,50/50,2,11,484252,square,circle,0.5,0.5,1.0,circle,150.0,negative,-0.25,21.0,5,1010,False,PG13_PRL.csv
PG13,50/50,2,12,487305,circle,square,0.5,0.5,1.0,square,979.0,positive,0.5,21.5,5,1000,False,PG13_PRL.csv
PG13,50/50,2,13,490104,circle,square,0.5,0.5,1.0,square,721.0,negative,-0.25,21.25,5,1012,False,PG13_PRL.csv
PG13,50/50,2,14,493093,circle,square,0.5,0.5,1.0,square,914.0,positive,0.5,21.75,5,1006,False,PG13_PRL.csv
PG13,50/50,2,15,495706,circle,square,0.5,0.5,0.0,circle,520.0,positive,0.5,22.25,5,1015,False,PG13_PRL.csv
PG13,50/50,2,16,498185,square,circle,0.5,0.5,1.0,circle,381.0,negative,-0.25,22.0,5,1015,False,PG13_PRL.csv
PG13,50/50,2,17,500490,square,circle,0.5,0.5,0.0,square,218.0,positive,0.5,22.5,5,1012,False,PG13_PRL.csv
PG13,50/50,2,18,502939,circle,square,0.5,0.5,0.0,circle,380.0,negative,-0.25,22.25,5,1000,False,PG13_PRL.csv
PG13,50/50,2,19,505307,circle,square,0.5,0.5,1.0,square,282.0,negative,-0.25,22.0,5,1003,False,PG13_PRL.csv
PG13,50/50,2,20,507406,circle,square,0.5,0.5,1.0,square,16.0,negative,-0.25,21.75,5,1007,False,PG13_PRL.csv
PG13,50/50,2,21,509787,square,circle,0.5,0.5,0.0,square,293.0,positive,0.5,22.25,5,1011,False,PG13_PRL.csv
PG13,50/50,2,22,512236,square,circle,0.5,0.5,0.0,square,351.0,positive,0.5,22.75,5,1013,False,PG13_PRL.csv
PG13,50/50,2,23,514717,circle,square,0.5,0.5,1.0,square,398.0,negative,-0.25,22.5,5,1012,False,PG13_PRL.csv
PG13,50/50,2,24,516868,circle,square,0.5,0.5,1.0,square,63.0,negative,-0.25,22.25,5,1010,False,PG13_PRL.csv
PG13,50/50,2,25,519283,square,circle,0.5,0.5,0.0,square,331.0,negative,-0.25,22.0,5,1009,False,PG13_PRL.csv
PG13,50/50,2,26,521617,circle,square,0.5,0.5,1.0,square,251.0,negative,-0.25,21.75,5,1013,False,PG13_PRL.csv
PG13,50/50,2,27,523734,square,circle,0.5,0.5,0.0,square,32.0,negative,-0.25,21.5,5,1013,False,PG13_PRL.csv
PG13,50/50,2,28,526226,square,circle,0.5,0.5,0.0,square,397.0,negative,-0.25,21.25,5,1013,False,PG13_PRL.csv
PG13,50/50,2,29,528653,circle,square,0.5,0.5,0.0,circle,349.0,negative,-0.25,21.0,5,1000,False,PG13_PRL.csv
PG13,50/50,2,30,531265,square,circle,0.5,0.5,0.0,square,524.0,positive,0.5,21.5,5,1009,False,PG13_PRL.csv
PG13,50/50,2,31,533704,circle,square,0.5,0.5,1.0,square,343.0,positive,0.5,22.0,5,1013,False,PG13_PRL.csv
PG13,50/50,2,32,536046,circle,square,0.5,0.5,1.0,square,247.0,positive,0.5,22.5,5,1013,False,PG13_PRL.csv
PG13,50/50,2,33,538468,square,circle,0.5,0.5,0.0,square,347.0,positive,0.5,23.0,5,1000,False,PG13_PRL.csv
PG13,50/50,2,34,540870,square,circle,0.5,0.5,0.0,square,311.0,negative,-0.25,22.75,5,1005,False,PG13_PRL.csv
PG13,50/50,2,35,543353,circle,square,0.5,0.5,0.0,circle,398.0,negative,-0.25,22.5,5,1003,False,PG13_PRL.csv
PG13,50/50,2,36,545850,square,circle,0.5,0.5,1.0,circle,417.0,negative,-0.25,22.25,5,1000,False,PG13_PRL.csv
PG13,50/50,2,37,548251,square,circle,0.5,0.5,0.0,square,301.0,positive,0.5,22.75,5,1016,False,PG13_PRL.csv
PG13,50/50,2,38,551080,square,circle,0.5,0.5,0.0,square,732.0,negative,-0.25,22.5,5,1016,False,PG13_PRL.csv
PG13,50/50,2,39,553494,circle,square,0.5,0.5,1.0,square,330.0,positive,0.5,23.0,5,1010,False,PG13_PRL.csv
PG13,50/50,2,40,556026,circle,square,0.5,0.5,1.0,square,433.0,negative,-0.25,22.75,5,1016,False,PG13_PRL.csv
PG13,50/50,2,41,558652,square,circle,0.5,0.5,0.0,square,549.0,positive,0.5,23.25,5,1000,False,PG13_PRL.csv
PG13,50/50,2,42,561159,circle,square,0.5,0.5,1.0,square,429.0,positive,0.5,23.75,5,1000,False,PG13_PRL.csv
PG13,50/50,2,43,563548,circle,square,0.5,0.5,1.0,square,311.0,negative,-0.25,23.5,5,1001,False,PG13_PRL.csv
PG13,50/50,2,44,565836,circle,square,0.5,0.5,1.0,square,200.0,positive,0.5,24.0,5,1002,False,PG13_PRL.csv
PG13,50/50,2,45,568205,circle,square,0.5,0.5,1.0,square,281.0,positive,0.5,24.5,5,1012,False,PG13_PRL.csv
PG13,50/50,2,46,570664,circle,square,0.5,0.5,1.0,square,367.0,negative,-0.25,24.25,5,1017,False,PG13_PRL.csv
PG13,50/50,2,47,573064,circle,square,0.5,0.5,1.0,square,312.0,positive,0.5,24.75,5,1005,False,PG13_PRL.csv
PG13,50/50,2,48,575478,circle,square,0.5,0.5,1.0,square,319.0,negative,-0.25,24.5,5,1013,False,PG13_PRL.csv
PG13,50/50,2,49,578006,square,circle,0.5,0.5,0.0,square,444.0,positive,0.5,25.0,5,1009,False,PG13_PRL.csv
PG13,50/50,2,50,580646,circle,square,0.5,0.5,1.0,square,563.0,negative,-0.25,24.75,5,1015,False,PG13_PRL.csv
PG13,50/50,2,51,583081,circle,square,0.5,0.5,1.0,square,350.0,positive,0.5,25.25,5,1007,False,PG13_PRL.csv
PG13,50/50,2,52,585523,square,circle,0.5,0.5,0.0,square,362.0,negative,-0.25,25.0,5,1000,False,PG13_PRL.csv
PG13,50/50,2,53,588159,square,circle,0.5,0.5,1.0,circle,547.0,negative,-0.25,24.75,5,1015,False,PG13_PRL.csv
PG13,50/50,2,54,590528,square,circle,0.5,0.5,0.0,square,301.0,negative,-0.25,24.5,5,1001,False,PG13_PRL.csv
PG13,50/50,2,55,592741,circle,square,0.5,0.5,1.0,square,117.0,negative,-0.25,24.25,5,1015,False,PG13_PRL.csv
PG13,50/50,2,56,595363,square,circle,0.5,0.5,0.0,square,543.0,positive,0.5,24.75,5,1008,False,PG13_PRL.csv
PG13,50/50,2,57,597811,circle,square,0.5,0.5,1.0,square,363.0,negative,-0.25,24.5,5,1004,False,PG13_PRL.csv
PG13,50/50,2,58,600311,square,circle,0.5,0.5,1.0,circle,417.0,negative,-0.25,24.25,5,1014,False,PG13_PRL.csv
PG13,50/50,2,59,602701,circle,square,0.5,0.5,1.0,square,313.0,negative,-0.25,24.0,5,1001,False,PG13_PRL.csv
PG13,50/50,2,60,605143,square,circle,0.5,0.5,0.0,square,361.0,positive,0.5,24.5,5,1011,False,PG13_PRL.csv
PG14,80/20,1,1,122516,circle,square,0.2,0.8,,,,,0.0,0.0,5,1008,True,participant_PG14.csv
PG14,80/20,1,2,125563,square,circle,0.8,0.2,,,,,0.0,0.0,5,1011,True,participant_PG14.csv
PG14,80/20,1,3,127637,circle,square,0.2,0.8,1.0,square,32.0,positive,0.0,0.0,5,1011,True,participant_PG14.csv
PG14,80/20,1,4,129739,square,circle,0.8,0.2,0.0,square,66.0,positive,0.0,0.0,5,1008,True,participant_PG14.csv
PG14,80/20,1,5,132778,square,circle,0.8,0.2,,,,,0.0,0.0,5,1007,True,participant_PG14.csv
PG14,80/20,1,6,135833,circle,square,0.2,0.8,,,,,0.0,0.0,5,1015,True,participant_PG14.csv
PG14,80/20,1,7,138884,square,circle,0.8,0.2,,,,,0.0,0.0,5,1013,True,participant_PG14.csv
PG14,80/20,1,8,141463,square,circle,0.8,0.2,0.0,square,539.0,positive,0.0,0.0,5,1014,True,participant_PG14.csv
PG14,80/20,1,9,144073,square,circle,0.8,0.2,0.0,square,567.0,positive,0.0,0.0,5,1007,True,participant_PG14.csv
PG14,80/20,1,10,146570,square,circle,0.8,0.2,0.0,square,461.0,positive,0.0,0.0,5,1012,True,participant_PG14.csv
PG14,80/20,1,11,148929,square,circle,0.8,0.2,0.0,square,315.0,positive,0.0,0.0,5,1013,True,participant_PG14.csv
PG14,80/20,1,12,151365,circle,square,0.2,0.8,1.0,square,398.0,positive,0.0,0.0,5,1012,True,participant_PG14.csv
PG14,80/20,1,13,153914,square,circle,0.8,0.2,0.0,square,509.0,positive,0.0,0.0,5,1010,True,participant_PG14.csv
PG14,80/20,1,14,156953,circle,square,0.2,0.8,,,,,0.0,0.0,5,1009,True,participant_PG14.csv
PG14,80/20,1,15,159499,circle,square,0.2,0.8,1.0,square,526.0,negative,0.0,0.0,5,1003,True,participant_PG14.csv
PG14,80/20,1,16,162203,square,circle,0.8,0.2,0.0,square,666.0,positive,0.0,0.0,5,1007,True,participant_PG14.csv
PG14,80/20,1,17,164915,circle,square,0.2,0.8,1.0,square,678.0,positive,0.0,0.0,5,1007,True,participant_PG14.csv
PG14,80/20,1,18,167568,square,circle,0.8,0.2,0.0,square,612.0,positive,0.0,0.0,5,1011,True,participant_PG14.csv
PG14,80/20,1,19,170023,circle,square,0.2,0.8,1.0,square,417.0,positive,0.0,0.0,5,1011,True,participant_PG14.csv
PG14,80/20,1,20,172408,square,circle,0.8,0.2,0.0,square,345.0,positive,0.0,0.0,5,1009,True,participant_PG14.csv
PG14,80/20,1,1,208907,circle,square,0.2,0.8,1.0,square,893.0,negative,-0.25,-0.25,5,1004,False,participant_PG14.csv
PG14,80/20,1,2,211320,square,circle,0.8,0.2,0.0,square,380.0,positive,0.5,0.25,5,1007,False,participant_PG14.csv
PG14,80/20,1,3,213625,square,circle,0.8,0.2,0.0,square,265.0,positive,0.5,0.75,5,1015,False,participant_PG14.csv
PG14,80/20,1,4,216520,circle,square,0.2,0.8,1.0,square,874.0,positive,0.5,1.25,5,1003,False,participant_PG14.csv
PG14,80/20,1,5,218811,circle,square,0.2,0.8,1.0,square,252.0,positive,0.5,1.75,5,1012,False,participant_PG14.csv
PG14,80/20,1,6,221161,square,circle,0.8,0.2,0.0,square,314.0,negative,-0.25,1.5,5,1005,False,participant_PG14.csv
PG14,80/20,1,7,223463,circle,square,0.2,0.8,1.0,square,263.0,negative,-0.25,1.25,5,1004,False,participant_PG14.csv
PG14,80/20,1,8,225523,circle,square,0.2,0.8,1.0,square,32.0,positive,0.5,1.75,5,1001,False,participant_PG14.csv
PG14,80/20,1,9,227873,square,circle,0.8,0.2,0.0,square,318.0,positive,0.5,2.25,5,1014,False,participant_PG14.csv
PG14,80/20,1,10,230162,square,circle,0.8,0.2,0.0,square,247.0,positive,0.5,2.75,5,1010,False,participant_PG14.csv
PG14,80/20,1,11,232426,square,circle,0.8,0.2,0.0,square,217.0,negative,-0.25,2.5,5,1014,False,participant_PG14.csv
PG14,80/20,1,12,234697,circle,square,0.2,0.8,1.0,square,232.0,positive,0.5,3.0,5,1010,False,participant_PG14.csv
PG14,80/20,1,13,236988,circle,square,0.2,0.8,1.0,square,248.0,positive,0.5,3.5,5,1013,False,participant_PG14.csv
PG14,80/20,1,14,239297,circle,square,0.2,0.8,0.0,circle,263.0,negative,-0.25,3.25,5,1012,False,participant_PG14.csv
PG14,80/20,1,15,241771,circle,square,0.2,0.8,1.0,square,429.0,positive,0.5,3.75,5,1015,False,participant_PG14.csv
PG14,80/20,1,16,244225,square,circle,0.8,0.2,0.0,square,414.0,positive,0.5,4.25,5,1013,False,participant_PG14.csv
PG14,80/20,1,17,246687,square,circle,0.8,0.2,0.0,square,429.0,positive,0.5,4.75,5,1012,False,participant_PG14.csv
PG14,80/20,1,18,249110,circle,square,0.2,0.8,1.0,square,396.0,positive,0.5,5.25,5,1006,False,participant_PG14.csv
PG14,80/20,1,19,251474,circle,square,0.2,0.8,1.0,square,332.0,positive,0.5,5.75,5,1011,False,participant_PG14.csv
PG14,80/20,1,20,253738,circle,square,0.2,0.8,1.0,square,232.0,positive,0.5,6.25,5,1001,False,participant_PG14.csv
PG14,80/20,1,21,256029,circle,square,0.2,0.8,1.0,square,249.0,negative,-0.25,6.0,5,1010,False,participant_PG14.csv
PG14,80/20,1,22,258364,square,circle,0.8,0.2,0.0,square,300.0,positive,0.5,6.5,5,1008,False,participant_PG14.csv
PG14,80/20,1,23,260622,square,circle,0.8,0.2,0.0,square,216.0,positive,0.5,7.0,5,1011,False,participant_PG14.csv
PG14,80/20,1,24,262977,circle,square,0.2,0.8,1.0,square,326.0,negative,-0.25,6.75,5,1013,False,participant_PG14.csv
PG14,80/20,1,25,265271,circle,square,0.2,0.8,1.0,square,263.0,positive,0.5,7.25,5,1006,False,participant_PG14.csv
PG14,80/20,1,26,267507,circle,square,0.2,0.8,1.0,square,210.0,negative,-0.25,7.0,5,1003,False,participant_PG14.csv
PG14,80/20,1,27,269804,square,circle,0.8,0.2,0.0,square,245.0,positive,0.5,7.5,5,1015,False,participant_PG14.csv
PG14,80/20,1,28,272065,square,circle,0.8,0.2,0.0,square,229.0,positive,0.5,8.0,5,1014,False,participant_PG14.csv
PG14,80/20,1,29,274349,square,circle,0.8,0.2,0.0,square,250.0,positive,0.5,8.5,5,1013,False,participant_PG14.csv
PG14,80/20,1,30,276648,square,circle,0.8,0.2,0.0,square,264.0,negative,-0.25,8.25,5,1012,False,participant_PG14.csv
PG14,80/20,1,31,279034,circle,square,0.2,0.8,0.0,circle,363.0,negative,-0.25,8.0,5,1001,False,participant_PG14.csv
PG14,80/20,1,32,281205,circle,square,0.2,0.8,1.0,square,131.0,negative,-0.25,7.75,5,1012,False,participant_PG14.csv
PG14,80/20,1,33,283379,circle,square,0.2,0.8,1.0,square,129.0,negative,-0.25,7.5,5,1012,False,participant_PG14.csv
PG14,80/20,1,34,285753,circle,square,0.2,0.8,0.0,circle,346.0,negative,-0.25,7.25,5,1001,False,participant_PG14.csv
PG14,80/20,1,35,288154,square,circle,0.8,0.2,0.0,square,359.0,positive,0.5,7.75,5,1013,False,participant_PG14.csv
PG14,80/20,1,36,290759,circle,square,0.2,0.8,1.0,square,576.0,positive,0.5,8.25,5,1003,False,participant_PG14.csv
PG14,80/20,1,37,293204,square,circle,0.8,0.2,0.0,square,411.0,positive,0.5,8.75,5,1010,False,participant_PG14.csv
PG14,80/20,1,38,295742,square,circle,0.8,0.2,0.0,square,501.0,positive,0.5,9.25,5,1011,False,participant_PG14.csv
PG14,80/20,1,39,298652,circle,square,0.2,0.8,1.0,square,880.0,negative,-0.25,9.0,5,1004,False,participant_PG14.csv
PG14,80/20,1,40,301252,square,circle,0.8,0.2,0.0,square,559.0,negative,-0.25,8.75,5,1008,False,participant_PG14.csv
PG14,80/20,1,41,303323,square,circle,0.8,0.2,0.0,square,34.0,positive,0.5,9.25,5,1010,False,participant_PG14.csv
PG14,80/20,1,42,305654,square,circle,0.8,0.2,0.0,square,294.0,positive,0.5,9.75,5,1009,False,participant_PG14.csv
PG14,80/20,1,43,308131,square,circle,0.8,0.2,0.0,square,449.0,negative,-0.25,9.5,5,1000,False,participant_PG14.csv
PG14,80/20,1,44,310231,circle,square,0.2,0.8,1.0,square,65.0,negative,-0.25,9.25,5,1010,False,participant_PG14.csv
PG14,80/20,1,45,312419,square,circle,0.8,0.2,0.0,square,147.0,positive,0.5,9.75,5,1006,False,participant_PG14.csv
PG14,80/20,1,46,314686,square,circle,0.8,0.2,0.0,square,249.0,negative,-0.25,9.5,5,1004,False,participant_PG14.csv
PG14,80/20,1,47,317091,circle,square,0.2,0.8,1.0,square,365.0,positive,0.5,10.0,5,1010,False,participant_PG14.csv
PG14,80/20,1,48,319549,circle,square,0.2,0.8,0.0,circle,410.0,negative,-0.25,9.75,5,1010,False,participant_PG14.csv
PG14,80/20,1,49,321710,square,circle,0.8,0.2,0.0,square,117.0,positive,0.5,10.25,5,1015,False,participant_PG14.csv
PG14,80/20,1,50,324756,square,circle,0.8,0.2,,,,,0.0,10.25,5,1009,False,participant_PG14.csv
PG14,80/20,1,51,326901,circle,square,0.2,0.8,1.0,square,116.0,positive,0.5,10.75,5,1007,False,participant_PG14.csv
PG14,80/20,1,52,329288,square,circle,0.8,0.2,0.0,square,346.0,positive,0.5,11.25,5,1015,False,participant_PG14.csv
PG14,80/20,1,53,331337,circle,square,0.2,0.8,1.0,square,16.0,positive,0.5,11.75,5,1009,False,participant_PG14.csv
PG14,80/20,1,54,333442,circle,square,0.2,0.8,1.0,square,64.0,positive,0.5,12.25,5,1013,False,participant_PG14.csv
PG14,80/20,1,55,335701,circle,square,0.2,0.8,1.0,square,219.0,positive,0.5,12.75,5,1009,False,participant_PG14.csv
PG14,80/20,1,56,337891,circle,square,0.2,0.8,1.0,square,149.0,positive,0.5,13.25,5,1010,False,participant_PG14.csv
PG14,80/20,1,57,339960,circle,square,0.2,0.8,1.0,square,48.0,positive,0.5,13.75,5,1001,False,participant_PG14.csv
PG14,80/20,1,58,342296,square,circle,0.8,0.2,0.0,square,299.0,positive,0.5,14.25,5,1012,False,participant_PG14.csv
PG14,80/20,1,59,344417,square,circle,0.8,0.2,0.0,square,83.0,positive,0.5,14.75,5,1006,False,participant_PG14.csv
PG14,80/20,1,60,346846,square,circle,0.8,0.2,0.0,square,396.0,positive,0.5,15.25,5,1010,False,participant_PG14.csv
PG14,50/50,2,1,356609,circle,square,0.5,0.5,1.0,square,733.0,negative,-0.25,15.0,5,1003,False,participant_PG14.csv
PG14,50/50,2,2,358849,circle,square,0.5,0.5,1.0,square,217.0,positive,0.5,15.5,5,1009,False,participant_PG14.csv
PG14,50/50,2,3,361876,circle,square,0.5,0.5,1.0,square,981.0,positive,0.5,16.0,5,1014,False,participant_PG14.csv
PG14,50/50,2,4,364009,square,circle,0.5,0.5,0.0,square,99.0,negative,-0.25,15.75,5,1000,False,participant_PG14.csv
PG14,50/50,2,5,366206,circle,square,0.5,0.5,1.0,square,166.0,negative,-0.25,15.5,5,1013,False,participant_PG14.csv
PG14,50/50,2,6,368573,circle,square,0.5,0.5,1.0,square,332.0,negative,-0.25,15.25,5,1014,False,participant_PG14.csv
PG14,50/50,2,7,371053,circle,square,0.5,0.5,0.0,circle,444.0,positive,0.5,15.75,5,1010,False,participant_PG14.csv
PG14,50/50,2,8,373280,circle,square,0.5,0.5,0.0,circle,203.0,negative,-0.25,15.5,5,1002,False,participant_PG14.csv
PG14,50/50,2,9,375741,square,circle,0.5,0.5,0.0,square,416.0,negative,-0.25,15.25,5,1017,False,participant_PG14.csv
PG14,50/50,2,10,378140,square,circle,0.5,0.5,1.0,circle,363.0,positive,0.5,15.75,5,1010,False,participant_PG14.csv
PG14,50/50,2,11,380461,square,circle,0.5,0.5,1.0,circle,294.0,negative,-0.25,15.5,5,1001,False,participant_PG14.csv
PG14,50/50,2,12,382729,square,circle,0.5,0.5,1.0,circle,230.0,negative,-0.25,15.25,5,1009,False,participant_PG14.csv
PG14,50/50,2,13,384873,circle,square,0.5,0.5,1.0,square,113.0,negative,-0.25,15.0,5,1000,False,participant_PG14.csv
PG14,50/50,2,14,387173,circle,square,0.5,0.5,1.0,square,267.0,positive,0.5,15.5,5,1014,False,participant_PG14.csv
PG14,50/50,2,15,389274,circle,square,0.5,0.5,1.0,square,68.0,positive,0.5,16.0,5,1011,False,participant_PG14.csv
PG14,50/50,2,16,391489,circle,square,0.5,0.5,1.0,square,182.0,negative,-0.25,15.75,5,1014,False,participant_PG14.csv
PG14,50/50,2,17,393835,circle,square,0.5,0.5,1.0,square,314.0,positive,0.5,16.25,5,1012,False,participant_PG14.csv
PG14,50/50,2,18,396016,circle,square,0.5,0.5,1.0,square,148.0,negative,-0.25,16.0,5,1011,False,participant_PG14.csv
PG14,50/50,2,19,398321,square,circle,0.5,0.5,0.0,square,261.0,positive,0.5,16.5,5,1010,False,participant_PG14.csv
PG14,50/50,2,20,400386,circle,square,0.5,0.5,1.0,square,32.0,positive,0.5,17.0,5,1010,False,participant_PG14.csv
PG14,50/50,2,21,402769,square,circle,0.5,0.5,0.0,square,350.0,negative,-0.25,16.75,5,1002,False,participant_PG14.csv
PG14,50/50,2,22,405007,circle,square,0.5,0.5,1.0,square,213.0,negative,-0.25,16.5,5,1007,False,participant_PG14.csv
PG14,50/50,2,23,408068,circle,square,0.5,0.5,,,,,0.0,16.5,5,1014,False,participant_PG14.csv
PG14,50/50,2,24,410267,circle,square,0.5,0.5,1.0,square,166.0,negative,-0.25,16.25,5,1011,False,participant_PG14.csv
PG14,50/50,2,25,413302,square,circle,0.5,0.5,,,,,0.0,16.25,5,1000,False,participant_PG14.csv
PG14,50/50,2,26,415533,circle,square,0.5,0.5,1.0,square,201.0,negative,-0.25,16.0,5,1012,False,participant_PG14.csv
PG14,50/50,2,27,417685,square,circle,0.5,0.5,0.0,square,114.0,positive,0.5,16.5,5,1010,False,participant_PG14.csv
PG14,50/50,2,28,419954,square,circle,0.5,0.5,0.0,square,229.0,negative,-0.25,16.25,5,1009,False,participant_PG14.csv
PG14,50/50,2,29,422536,square,circle,0.5,0.5,0.0,square,548.0,negative,-0.25,16.0,5,1006,False,participant_PG14.csv
PG14,50/50,2,30,425452,circle,square,0.5,0.5,1.0,square,891.0,positive,0.5,16.5,5,1006,False,participant_PG14.csv
PG14,50/50,2,31,427976,square,circle,0.5,0.5,0.0,square,483.0,negative,-0.25,16.25,5,1010,False,participant_PG14.csv
PG14,50/50,2,32,430079,circle,square,0.5,0.5,1.0,square,66.0,positive,0.5,16.75,5,1010,False,participant_PG14.csv
PG14,50/50,2,33,432300,circle,square,0.5,0.5,1.0,square,185.0,negative,-0.25,16.5,5,1013,False,participant_PG14.csv
PG14,50/50,2,34,434396,circle,square,0.5,0.5,0.0,circle,50.0,positive,0.5,17.0,5,1013,False,participant_PG14.csv
PG14,50/50,2,35,436596,circle,square,0.5,0.5,0.0,circle,165.0,negative,-0.25,16.75,5,1002,False,participant_PG14.csv
PG14,50/50,2,36,438650,circle,square,0.5,0.5,1.0,square,16.0,negative,-0.25,16.5,5,1004,False,participant_PG14.csv
PG14,50/50,2,37,440930,circle,square,0.5,0.5,0.0,circle,236.0,negative,-0.25,16.25,5,1011,False,participant_PG14.csv
PG14,50/50,2,38,443113,circle,square,0.5,0.5,1.0,square,149.0,negative,-0.25,16.0,5,1011,False,participant_PG14.csv
PG14,50/50,2,39,445244,circle,square,0.5,0.5,1.0,square,98.0,positive,0.5,16.5,5,1008,False,participant_PG14.csv
PG14,50/50,2,40,447380,circle,square,0.5,0.5,1.0,square,100.0,positive,0.5,17.0,5,1014,False,participant_PG14.csv
PG14,50/50,2,41,449561,square,circle,0.5,0.5,0.0,square,146.0,negative,-0.25,16.75,5,1010,False,participant_PG14.csv
PG14,50/50,2,42,451762,circle,square,0.5,0.5,1.0,square,163.0,positive,0.5,17.25,5,1009,False,participant_PG14.csv
PG14,50/50,2,43,453865,circle,square,0.5,0.5,1.0,square,66.0,negative,-0.25,17.0,5,1012,False,participant_PG14.csv
PG14,50/50,2,44,455950,circle,square,0.5,0.5,1.0,square,49.0,positive,0.5,17.5,5,1009,False,participant_PG14.csv
PG14,50/50,2,45,458244,square,circle,0.5,0.5,0.0,square,252.0,positive,0.5,18.0,5,1011,False,participant_PG14.csv
PG14,50/50,2,46,460383,circle,square,0.5,0.5,1.0,square,116.0,negative,-0.25,17.75,5,1004,False,participant_PG14.csv
PG14,50/50,2,47,462516,circle,square,0.5,0.5,1.0,square,83.0,positive,0.5,18.25,5,1017,False,participant_PG14.csv
PG14,50/50,2,48,464614,circle,square,0.5,0.5,1.0,square,49.0,positive,0.5,18.75,5,1016,False,participant_PG14.csv
PG14,50/50,2,49,466691,circle,square,0.5,0.5,1.0,square,49.0,negative,-0.25,18.5,5,1007,False,participant_PG14.csv
PG14,50/50,2,50,468928,circle,square,0.5,0.5,1.0,square,212.0,negative,-0.25,18.25,5,1009,False,participant_PG14.csv
PG14,50/50,2,51,471115,circle,square,0.5,0.5,1.0,square,164.0,positive,0.5,18.75,5,1003,False,participant_PG14.csv
PG14,50/50,2,52,473262,square,circle,0.5,0.5,0.0,square,117.0,negative,-0.25,18.5,5,1001,False,participant_PG14.csv
PG14,50/50,2,53,475335,circle,square,0.5,0.5,1.0,square,49.0,negative,-0.25,18.25,5,1005,False,participant_PG14.csv
PG14,50/50,2,54,477553,circle,square,0.5,0.5,1.0,square,183.0,negative,-0.25,18.0,5,1009,False,participant_PG14.csv
PG14,50/50,2,55,479656,square,circle,0.5,0.5,0.0,square,65.0,negative,-0.25,17.75,5,1014,False,participant_PG14.csv
PG14,50/50,2,56,481970,square,circle,0.5,0.5,0.0,square,282.0,negative,-0.25,17.5,5,1008,False,participant_PG14.csv
PG14,50/50,2,57,484176,square,circle,0.5,0.5,0.0,square,165.0,negative,-0.25,17.25,5,1014,False,participant_PG14.csv
PG14,50/50,2,58,487226,square,circle,0.5,0.5,,,,,0.0,17.25,5,1014,False,participant_PG14.csv
PG14,50/50,2,59,489390,circle,square,0.5,0.5,1.0,square,118.0,positive,0.5,17.75,5,1013,False,participant_PG14.csv
PG14,50/50,2,60,491488,square,circle,0.5,0.5,0.0,square,68.0,positive,0.5,18.25,5,1011,False,participant_PG14.csv
PG15,80/20,1,1,73933,circle,square,0.2,0.8,,,,,0.0,0.0,5,1002,True,participant_PG15.csv
PG15,80/20,1,2,77072,square,circle,0.8,0.2,,,,,0.0,0.0,5,1015,True,participant_PG15.csv
PG15,80/20,1,3,79412,circle,square,0.2,0.8,1.0,square,219.0,positive,0.0,0.0,5,1012,True,participant_PG15.csv
PG15,80/20,1,4,82237,circle,square,0.2,0.8,1.0,square,711.0,positive,0.0,0.0,5,1008,True,participant_PG15.csv
PG15,80/20,1,5,85371,square,circle,0.8,0.2,,,,,0.0,0.0,5,1013,True,participant_PG15.csv
PG15,80/20,1,6,88149,circle,square,0.2,0.8,1.0,square,660.0,positive,0.0,0.0,5,1004,True,participant_PG15.csv
PG15,80/20,1,7,90861,circle,square,0.2,0.8,1.0,square,590.0,positive,0.0,0.0,5,1009,True,participant_PG15.csv
PG15,80/20,1,8,93753,square,circle,0.8,0.2,0.0,square,778.0,positive,0.0,0.0,5,1012,True,participant_PG15.csv
PG15,80/20,1,9,96270,circle,square,0.2,0.8,1.0,square,398.0,negative,0.0,0.0,5,1009,True,participant_PG15.csv
PG15,80/20,1,10,99206,circle,square,0.2,0.8,0.0,circle,810.0,negative,0.0,0.0,5,1012,True,participant_PG15.csv
PG15,80/20,1,11,101562,square,circle,0.8,0.2,0.0,square,245.0,positive,0.0,0.0,5,1007,True,participant_PG15.csv
PG15,80/20,1,12,104206,square,circle,0.8,0.2,0.0,square,528.0,positive,0.0,0.0,5,1008,True,participant_PG15.csv
PG15,80/20,1,13,106724,square,circle,0.8,0.2,0.0,square,393.0,negative,0.0,0.0,5,1013,True,participant_PG15.csv
PG15,80/20,1,14,108957,circle,square,0.2,0.8,1.0,square,115.0,positive,0.0,0.0,5,1009,True,participant_PG15.csv
PG15,80/20,1,15,111610,square,circle,0.8,0.2,0.0,square,529.0,negative,0.0,0.0,5,1016,True,participant_PG15.csv
PG15,80/20,1,16,114252,square,circle,0.8,0.2,0.0,square,528.0,positive,0.0,0.0,5,1010,True,participant_PG15.csv
PG15,80/20,1,17,116960,square,circle,0.8,0.2,0.0,square,597.0,negative,0.0,0.0,5,1009,True,participant_PG15.csv
PG15,80/20,1,18,119462,circle,square,0.2,0.8,1.0,square,384.0,negative,0.0,0.0,5,1007,True,participant_PG15.csv
PG15,80/20,1,19,122045,square,circle,0.8,0.2,1.0,circle,461.0,negative,0.0,0.0,5,1012,True,participant_PG15.csv
PG15,80/20,1,20,124682,circle,square,0.2,0.8,0.0,circle,513.0,negative,0.0,0.0,5,1009,True,participant_PG15.csv
PG15,80/20,1,1,133803,square,circle,0.8,0.2,0.0,square,958.0,positive,0.5,0.5,5,1009,False,participant_PG15.csv
PG15,80/20,1,2,136697,circle,square,0.2,0.8,1.0,square,776.0,positive,0.5,1.0,5,1004,False,participant_PG15.csv
PG15,80/20,1,3,139312,circle,square,0.2,0.8,0.0,circle,492.0,negative,-0.25,0.75,5,1014,False,participant_PG15.csv
PG15,80/20,1,4,141923,circle,square,0.2,0.8,1.0,square,491.0,positive,0.5,1.25,5,1004,False,participant_PG15.csv
PG15,80/20,1,5,144553,circle,square,0.2,0.8,1.0,square,514.0,positive,0.5,1.75,5,1007,False,participant_PG15.csv
PG15,80/20,1,6,147175,circle,square,0.2,0.8,1.0,square,495.0,negative,-0.25,1.5,5,1010,False,participant_PG15.csv
PG15,80/20,1,7,149801,circle,square,0.2,0.8,1.0,square,515.0,negative,-0.25,1.25,5,1013,False,participant_PG15.csv
PG15,80/20,1,8,152226,circle,square,0.2,0.8,1.0,square,311.0,positive,0.5,1.75,5,1001,False,participant_PG15.csv
PG15,80/20,1,9,154726,circle,square,0.2,0.8,1.0,square,383.0,positive,0.5,2.25,5,1011,False,participant_PG15.csv
PG15,80/20,1,10,157306,circle,square,0.2,0.8,0.0,circle,466.0,negative,-0.25,2.0,5,1003,False,participant_PG15.csv
PG15,80/20,1,11,160144,square,circle,0.8,0.2,0.0,square,716.0,negative,-0.25,1.75,5,1011,False,participant_PG15.csv
PG15,80/20,1,12,162601,square,circle,0.8,0.2,0.0,square,330.0,positive,0.5,2.25,5,1015,False,participant_PG15.csv
PG15,80/20,1,13,165179,circle,square,0.2,0.8,1.0,square,468.0,positive,0.5,2.75,5,1010,False,participant_PG15.csv
PG15,80/20,1,14,167761,square,circle,0.8,0.2,0.0,square,465.0,positive,0.5,3.25,5,1008,False,participant_PG15.csv
PG15,80/20,1,15,170274,circle,square,0.2,0.8,0.0,circle,397.0,negative,-0.25,3.0,5,1007,False,participant_PG15.csv
PG15,80/20,1,16,172693,circle,square,0.2,0.8,1.0,square,298.0,positive,0.5,3.5,5,1006,False,participant_PG15.csv
PG15,80/20,1,17,175091,square,circle,0.8,0.2,0.0,square,280.0,positive,0.5,4.0,5,1010,False,participant_PG15.csv
PG15,80/20,1,18,177792,square,circle,0.8,0.2,0.0,square,579.0,positive,0.5,4.5,5,1008,False,participant_PG15.csv
PG15,80/20,1,19,180380,square,circle,0.8,0.2,0.0,square,463.0,positive,0.5,5.0,5,1011,False,participant_PG15.csv
PG15,80/20,1,20,182844,square,circle,0.8,0.2,0.0,square,346.0,negative,-0.25,4.75,5,1007,False,participant_PG15.csv
PG15,80/20,1,21,185147,square,circle,0.8,0.2,0.0,square,182.0,positive,0.5,5.25,5,1011,False,participant_PG15.csv
PG15,80/20,1,22,187633,square,circle,0.8,0.2,0.0,square,364.0,positive,0.5,5.75,5,1011,False,participant_PG15.csv
PG15,80/20,1,23,190056,circle,square,0.2,0.8,1.0,square,300.0,positive,0.5,6.25,5,1011,False,participant_PG15.csv
PG15,80/20,1,24,192478,square,circle,0.8,0.2,0.0,square,298.0,positive,0.5,6.75,5,1009,False,participant_PG15.csv
PG15,80/20,1,25,194821,square,circle,0.8,0.2,0.0,square,229.0,positive,0.5,7.25,5,1007,False,participant_PG15.csv
PG15,80/20,1,26,197333,circle,square,0.2,0.8,1.0,square,381.0,positive,0.5,7.75,5,1014,False,participant_PG15.csv
PG15,80/20,1,27,199799,circle,square,0.2,0.8,1.0,square,349.0,positive,0.5,8.25,5,1009,False,participant_PG15.csv
PG15,80/20,1,28,202150,circle,square,0.2,0.8,1.0,square,231.0,positive,0.5,8.75,5,1007,False,participant_PG15.csv
PG15,80/20,1,29,204637,circle,square,0.2,0.8,1.0,square,360.0,positive,0.5,9.25,5,1012,False,participant_PG15.csv
PG15,80/20,1,30,207424,circle,square,0.2,0.8,1.0,square,664.0,positive,0.5,9.75,5,1013,False,participant_PG15.csv
PG15,80/20,1,31,209886,square,circle,0.8,0.2,0.0,square,345.0,positive,0.5,10.25,5,1011,False,participant_PG15.csv
PG15,80/20,1,32,212287,square,circle,0.8,0.2,0.0,square,281.0,positive,0.5,10.75,5,1009,False,participant_PG15.csv
PG15,80/20,1,33,214772,circle,square,0.2,0.8,1.0,square,357.0,positive,0.5,11.25,5,1012,False,participant_PG15.csv
PG15,80/20,1,34,217662,circle,square,0.2,0.8,1.0,square,777.0,positive,0.5,11.75,5,1003,False,participant_PG15.csv
PG15,80/20,1,35,220174,square,circle,0.8,0.2,0.0,square,397.0,positive,0.5,12.25,5,1007,False,participant_PG15.csv
PG15,80/20,1,36,222944,circle,square,0.2,0.8,1.0,square,659.0,positive,0.5,12.75,5,1008,False,participant_PG15.csv
PG15,80/20,1,37,225394,circle,square,0.2,0.8,1.0,square,331.0,positive,0.5,13.25,5,1011,False,participant_PG15.csv
PG15,80/20,1,38,227845,square,circle,0.8,0.2,0.0,square,330.0,positive,0.5,13.75,5,1009,False,participant_PG15.csv
PG15,80/20,1,39,230279,circle,square,0.2,0.8,1.0,square,314.0,positive,0.5,14.25,5,1008,False,participant_PG15.csv
PG15,80/20,1,40,232629,square,circle,0.8,0.2,0.0,square,230.0,positive,0.5,14.75,5,1008,False,participant_PG15.csv
PG15,80/20,1,41,235053,circle,square,0.2,0.8,1.0,square,315.0,positive,0.5,15.25,5,1011,False,participant_PG15.csv
PG15,80/20,1,42,237598,circle,square,0.2,0.8,1.0,square,426.0,negative,-0.25,15.0,5,1015,False,participant_PG15.csv
PG15,80/20,1,43,240251,square,circle,0.8,0.2,0.0,square,530.0,negative,-0.25,14.75,5,1009,False,participant_PG15.csv
PG15,80/20,1,44,242844,square,circle,0.8,0.2,0.0,square,472.0,positive,0.5,15.25,5,1011,False,participant_PG15.csv
PG15,80/20,1,45,245277,square,circle,0.8,0.2,0.0,square,316.0,positive,0.5,15.75,5,1006,False,participant_PG15.csv
PG15,80/20,1,46,247844,square,circle,0.8,0.2,0.0,square,448.0,positive,0.5,16.25,5,1007,False,participant_PG15.csv
PG15,80/20,1,47,250289,circle,square,0.2,0.8,1.0,square,330.0,positive,0.5,16.75,5,1001,False,participant_PG15.csv
PG15,80/20,1,48,252842,square,circle,0.8,0.2,0.0,square,428.0,positive,0.5,17.25,5,1014,False,participant_PG15.csv
PG15,80/20,1,49,255637,square,circle,0.8,0.2,0.0,square,681.0,negative,-0.25,17.0,5,1002,False,participant_PG15.csv
PG15,80/20,1,50,258091,square,circle,0.8,0.2,0.0,square,344.0,positive,0.5,17.5,5,1008,False,participant_PG15.csv
PG15,80/20,1,51,260491,square,circle,0.8,0.2,0.0,square,284.0,positive,0.5,18.0,5,1010,False,participant_PG15.csv
PG15,80/20,1,52,263168,square,circle,0.8,0.2,0.0,square,559.0,positive,0.5,18.5,5,1009,False,participant_PG15.csv
PG15,80/20,1,53,265634,circle,square,0.2,0.8,1.0,square,347.0,positive,0.5,19.0,5,1009,False,participant_PG15.csv
PG15,80/20,1,54,267806,circle,square,0.2,0.8,1.0,square,49.0,positive,0.5,19.5,5,1009,False,participant_PG15.csv
PG15,80/20,1,55,270525,circle,square,0.2,0.8,1.0,square,597.0,positive,0.5,20.0,5,1009,False,participant_PG15.csv
PG15,80/20,1,56,272924,square,circle,0.8,0.2,0.0,square,281.0,negative,-0.25,19.75,5,1010,False,participant_PG15.csv
PG15,80/20,1,57,275445,circle,square,0.2,0.8,1.0,square,397.0,positive,0.5,20.25,5,1008,False,participant_PG15.csv
PG15,80/20,1,58,277919,circle,square,0.2,0.8,1.0,square,349.0,positive,0.5,20.75,5,1012,False,participant_PG15.csv
PG15,80/20,1,59,280543,square,circle,0.8,0.2,0.0,square,508.0,positive,0.5,21.25,5,1008,False,participant_PG15.csv
PG15,80/20,1,60,283120,square,circle,0.8,0.2,0.0,square,461.0,positive,0.5,21.75,5,1010,False,participant_PG15.csv
PG15,50/50,2,1,296629,square,circle,0.5,0.5,,,,,0.0,21.75,5,1014,False,participant_PG15.csv
PG15,50/50,2,2,299249,square,circle,0.5,0.5,0.0,square,497.0,negative,-0.25,21.5,5,1016,False,participant_PG15.csv
PG15,50/50,2,3,301846,square,circle,0.5,0.5,0.0,square,485.0,negative,-0.25,21.25,5,1000,False,participant_PG15.csv
PG15,50/50,2,4,304423,circle,square,0.5,0.5,1.0,square,464.0,negative,-0.25,21.0,5,1010,False,participant_PG15.csv
PG15,50/50,2,5,307117,circle,square,0.5,0.5,0.0,circle,578.0,positive,0.5,21.5,5,1007,False,participant_PG15.csv
PG15,50/50,2,6,309733,circle,square,0.5,0.5,0.0,circle,494.0,negative,-0.25,21.25,5,1015,False,participant_PG15.csv
PG15,50/50,2,7,312196,square,circle,0.5,0.5,1.0,circle,346.0,negative,-0.25,21.0,5,1007,False,participant_PG15.csv
PG15,50/50,2,8,314728,square,circle,0.5,0.5,0.0,square,413.0,positive,0.5,21.5,5,1009,False,participant_PG15.csv
PG15,50/50,2,9,317377,square,circle,0.5,0.5,0.0,square,546.0,positive,0.5,22.0,5,1006,False,participant_PG15.csv
PG15,50/50,2,10,319807,circle,square,0.5,0.5,1.0,square,312.0,positive,0.5,22.5,5,1008,False,participant_PG15.csv
PG15,50/50,2,11,322399,square,circle,0.5,0.5,0.0,square,464.0,negative,-0.25,22.25,5,1013,False,participant_PG15.csv
PG15,50/50,2,12,324896,square,circle,0.5,0.5,0.0,square,379.0,positive,0.5,22.75,5,1010,False,participant_PG15.csv
PG15,50/50,2,13,327409,circle,square,0.5,0.5,1.0,square,396.0,negative,-0.25,22.5,5,1009,False,participant_PG15.csv
PG15,50/50,2,14,330020,circle,square,0.5,0.5,1.0,square,494.0,negative,-0.25,22.25,5,1016,False,participant_PG15.csv
PG15,50/50,2,15,332487,square,circle,0.5,0.5,0.0,square,347.0,positive,0.5,22.75,5,1007,False,participant_PG15.csv
PG15,50/50,2,16,334931,circle,square,0.5,0.5,0.0,circle,331.0,positive,0.5,23.25,5,1004,False,participant_PG15.csv
PG15,50/50,2,17,337429,circle,square,0.5,0.5,0.0,circle,379.0,positive,0.5,23.75,5,1012,False,participant_PG15.csv
PG15,50/50,2,18,339876,square,circle,0.5,0.5,0.0,square,336.0,positive,0.5,24.25,5,1008,False,participant_PG15.csv
PG15,50/50,2,19,342295,square,circle,0.5,0.5,1.0,circle,299.0,positive,0.5,24.75,5,1012,False,participant_PG15.csv
PG15,50/50,2,20,344823,square,circle,0.5,0.5,1.0,circle,411.0,negative,-0.25,24.5,5,1010,False,participant_PG15.csv
PG15,50/50,2,21,347212,circle,square,0.5,0.5,1.0,square,262.0,negative,-0.25,24.25,5,1012,False,participant_PG15.csv
PG15,50/50,2,22,349775,circle,square,0.5,0.5,1.0,square,447.0,negative,-0.25,24.0,5,1008,False,participant_PG15.csv
PG15,50/50,2,23,352096,square,circle,0.5,0.5,0.0,square,198.0,positive,0.5,24.5,5,1008,False,participant_PG15.csv
PG15,50/50,2,24,354629,square,circle,0.5,0.5,1.0,circle,414.0,positive,0.5,25.0,5,1010,False,participant_PG15.csv
PG15,50/50,2,25,357352,circle,square,0.5,0.5,0.0,circle,611.0,negative,-0.25,24.75,5,1009,False,participant_PG15.csv
PG15,50/50,2,26,359884,circle,square,0.5,0.5,1.0,square,411.0,negative,-0.25,24.5,5,1008,False,participant_PG15.csv
PG15,50/50,2,27,362382,circle,square,0.5,0.5,1.0,square,383.0,negative,-0.25,24.25,5,1006,False,participant_PG15.csv
PG15,50/50,2,28,365181,circle,square,0.5,0.5,1.0,square,676.0,negative,-0.25,24.0,5,1011,False,participant_PG15.csv
PG15,50/50,2,29,367675,square,circle,0.5,0.5,0.0,square,379.0,positive,0.5,24.5,5,1007,False,participant_PG15.csv
PG15,50/50,2,30,370122,circle,square,0.5,0.5,1.0,square,330.0,negative,-0.25,24.25,5,1007,False,participant_PG15.csv
PG15,50/50,2,31,372564,circle,square,0.5,0.5,1.0,square,316.0,positive,0.5,24.75,5,1015,False,participant_PG15.csv
PG15,50/50,2,32,375070,square,circle,0.5,0.5,1.0,circle,384.0,negative,-0.25,24.5,5,1011,False,participant_PG15.csv
PG15,50/50,2,33,377501,circle,square,0.5,0.5,1.0,square,313.0,positive,0.5,25.0,5,1009,False,participant_PG15.csv
PG15,50/50,2,34,380001,circle,square,0.5,0.5,0.0,circle,379.0,positive,0.5,25.5,5,1012,False,participant_PG15.csv
PG15,50/50,2,35,382443,square,circle,0.5,0.5,1.0,circle,317.0,negative,-0.25,25.25,5,1009,False,participant_PG15.csv
PG15,50/50,2,36,384838,circle,square,0.5,0.5,1.0,square,278.0,negative,-0.25,25.0,5,1010,False,participant_PG15.csv
PG15,50/50,2,37,387258,circle,square,0.5,0.5,1.0,square,315.0,positive,0.5,25.5,5,1008,False,participant_PG15.csv
PG15,50/50,2,38,389681,square,circle,0.5,0.5,1.0,circle,299.0,negative,-0.25,25.25,5,1007,False,participant_PG15.csv
PG15,50/50,2,39,392049,circle,square,0.5,0.5,1.0,square,248.0,negative,-0.25,25.0,5,1008,False,participant_PG15.csv
PG15,50/50,2,40,394579,circle,square,0.5,0.5,0.0,circle,415.0,negative,-0.25,24.75,5,1010,False,participant_PG15.csv
PG15,50/50,2,41,397050,square,circle,0.5,0.5,0.0,square,346.0,positive,0.5,25.25,5,1013,False,participant_PG15.csv
PG15,50/50,2,42,399508,square,circle,0.5,0.5,1.0,circle,345.0,positive,0.5,25.75,5,1009,False,participant_PG15.csv
PG15,50/50,2,43,401915,circle,square,0.5,0.5,1.0,square,297.0,negative,-0.25,25.5,5,1002,False,participant_PG15.csv
PG15,50/50,2,44,404234,circle,square,0.5,0.5,0.0,circle,215.0,positive,0.5,26.0,5,1006,False,participant_PG15.csv
PG15,50/50,2,45,406876,square,circle,0.5,0.5,1.0,circle,523.0,positive,0.5,26.5,5,1011,False,participant_PG15.csv
PG15,50/50,2,46,409357,square,circle,0.5,0.5,0.0,square,362.0,positive,0.5,27.0,5,1005,False,participant_PG15.csv
PG15,50/50,2,47,411860,square,circle,0.5,0.5,1.0,circle,383.0,positive,0.5,27.5,5,1007,False,participant_PG15.csv
PG15,50/50,2,48,414252,circle,square,0.5,0.5,0.0,circle,268.0,positive,0.5,28.0,5,1012,False,participant_PG15.csv
PG15,50/50,2,49,416719,square,circle,0.5,0.5,0.0,square,348.0,negative,-0.25,27.75,5,1012,False,participant_PG15.csv
PG15,50/50,2,50,419086,square,circle,0.5,0.5,1.0,circle,247.0,negative,-0.25,27.5,5,1009,False,participant_PG15.csv
PG15,50/50,2,51,421485,circle,square,0.5,0.5,1.0,square,280.0,positive,0.5,28.0,5,1009,False,participant_PG15.csv
PG15,50/50,2,52,423958,circle,square,0.5,0.5,1.0,square,364.0,negative,-0.25,27.75,5,1007,False,participant_PG15.csv
PG15,50/50,2,53,426385,square,circle,0.5,0.5,1.0,circle,315.0,positive,0.5,28.25,5,1008,False,participant_PG15.csv
PG15,50/50,2,54,428670,square,circle,0.5,0.5,0.0,square,165.0,negative,-0.25,28.0,5,1008,False,participant_PG15.csv
PG15,50/50,2,55,431078,circle,square,0.5,0.5,0.0,circle,296.0,negative,-0.25,27.75,5,1009,False,participant_PG15.csv
PG15,50/50,2,56,433477,circle,square,0.5,0.5,1.0,square,280.0,negative,-0.25,27.5,5,1014,False,participant_PG15.csv
PG15,50/50,2,57,435911,square,circle,0.5,0.5,1.0,circle,312.0,positive,0.5,28.0,5,1011,False,participant_PG15.csv
PG15,50/50,2,58,438631,circle,square,0.5,0.5,1.0,square,596.0,positive,0.5,28.5,5,1015,False,participant_PG15.csv
PG15,50/50,2,59,440998,circle,square,0.5,0.5,0.0,circle,249.0,positive,0.5,29.0,5,1009,False,participant_PG15.csv
PG15,50/50,2,60,443546,circle,square,0.5,0.5,1.0,square,429.0,negative,-0.25,28.75,5,1007,False,participant_PG15.csv
PG16,80/20,1,1,19958,square,circle,0.8,0.2,,,,,0.0,0.0,5,1016,True,participant_PG16.csv
PG16,80/20,1,2,23053,square,circle,0.8,0.2,,,,,0.0,0.0,5,1015,True,participant_PG16.csv
PG16,80/20,1,3,26140,square,circle,0.8,0.2,,,,,0.0,0.0,5,1002,True,participant_PG16.csv
PG16,80/20,1,4,28734,square,circle,0.8,0.2,0.0,square,529.0,positive,0.0,0.0,5,1001,True,participant_PG16.csv
PG16,80/20,1,5,31126,square,circle,0.8,0.2,1.0,circle,307.0,negative,0.0,0.0,5,1008,True,participant_PG16.csv
PG16,80/20,1,6,33602,circle,square,0.2,0.8,0.0,circle,392.0,positive,0.0,0.0,5,1005,True,participant_PG16.csv
PG16,80/20,1,7,35993,square,circle,0.8,0.2,0.0,square,295.0,positive,0.0,0.0,5,1014,True,participant_PG16.csv
PG16,80/20,1,8,38373,circle,square,0.2,0.8,0.0,circle,313.0,negative,0.0,0.0,5,1000,True,participant_PG16.csv
PG16,80/20,1,9,40770,circle,square,0.2,0.8,0.0,circle,311.0,negative,0.0,0.0,5,1015,True,participant_PG16.csv
PG16,80/20,1,10,43858,circle,square,0.2,0.8,,,,,0.0,0.0,5,1001,True,participant_PG16.csv
PG16,80/20,1,11,46250,square,circle,0.8,0.2,0.0,square,311.0,positive,0.0,0.0,5,1007,True,participant_PG16.csv
PG16,80/20,1,12,49107,circle,square,0.2,0.8,1.0,square,785.0,positive,0.0,0.0,5,1001,True,participant_PG16.csv
PG16,80/20,1,13,51460,square,circle,0.8,0.2,0.0,square,276.0,positive,0.0,0.0,5,1003,True,participant_PG16.csv
PG16,80/20,1,14,53844,square,circle,0.8,0.2,1.0,circle,311.0,negative,0.0,0.0,5,1007,True,participant_PG16.csv
PG16,80/20,1,15,56307,circle,square,0.2,0.8,0.0,circle,376.0,negative,0.0,0.0,5,1007,True,participant_PG16.csv
PG16,80/20,1,16,58815,square,circle,0.8,0.2,1.0,circle,431.0,negative,0.0,0.0,5,1004,True,participant_PG16.csv
PG16,80/20,1,17,61262,square,circle,0.8,0.2,0.0,square,367.0,positive,0.0,0.0,5,1009,True,participant_PG16.csv
PG16,80/20,1,18,63993,square,circle,0.8,0.2,0.0,square,654.0,positive,0.0,0.0,5,1005,True,participant_PG16.csv
PG16,80/20,1,19,66446,circle,square,0.2,0.8,0.0,circle,363.0,positive,0.0,0.0,5,1000,True,participant_PG16.csv
PG16,80/20,1,20,68810,square,circle,0.8,0.2,0.0,square,275.0,positive,0.0,0.0,5,1010,True,participant_PG16.csv
PG16,80/20,1,1,79438,circle,square,0.2,0.8,,,,,0.0,0.0,5,1000,False,participant_PG16.csv
PG16,80/20,1,2,81807,circle,square,0.2,0.8,0.0,circle,283.0,negative,-0.25,-0.25,5,1005,False,participant_PG16.csv
PG16,80/20,1,3,84332,square,circle,0.8,0.2,0.0,square,432.0,positive,0.5,0.25,5,1013,False,participant_PG16.csv
PG16,80/20,1,4,86663,square,circle,0.8,0.2,1.0,circle,244.0,negative,-0.25,0.0,5,1013,False,participant_PG16.csv
PG16,80/20,1,5,89000,square,circle,0.8,0.2,0.0,square,264.0,positive,0.5,0.5,5,1004,False,participant_PG16.csv
PG16,80/20,1,6,91413,square,circle,0.8,0.2,0.0,square,309.0,positive,0.5,1.0,5,1011,False,participant_PG16.csv
PG16,80/20,1,7,93732,square,circle,0.8,0.2,0.0,square,229.0,positive,0.5,1.5,5,1008,False,participant_PG16.csv
PG16,80/20,1,8,96079,circle,square,0.2,0.8,0.0,circle,261.0,negative,-0.25,1.25,5,1006,False,participant_PG16.csv
PG16,80/20,1,9,98436,circle,square,0.2,0.8,1.0,square,280.0,positive,0.5,1.75,5,1004,False,participant_PG16.csv
PG16,80/20,1,10,100837,square,circle,0.8,0.2,1.0,circle,316.0,negative,-0.25,1.5,5,1016,False,participant_PG16.csv
PG16,80/20,1,11,103044,square,circle,0.8,0.2,0.0,square,131.0,positive,0.5,2.0,5,1010,False,participant_PG16.csv
PG16,80/20,1,12,105350,circle,square,0.2,0.8,0.0,circle,213.0,negative,-0.25,1.75,5,1003,False,participant_PG16.csv
PG16,80/20,1,13,108128,circle,square,0.2,0.8,1.0,square,704.0,positive,0.5,2.25,5,1007,False,participant_PG16.csv
PG16,80/20,1,14,110509,square,circle,0.8,0.2,1.0,circle,297.0,negative,-0.25,2.0,5,1006,False,participant_PG16.csv
PG16,80/20,1,15,112832,circle,square,0.2,0.8,0.0,circle,246.0,negative,-0.25,1.75,5,1006,False,participant_PG16.csv
PG16,80/20,1,16,115037,square,circle,0.8,0.2,0.0,square,132.0,positive,0.5,2.25,5,1003,False,participant_PG16.csv
PG16,80/20,1,17,117376,circle,square,0.2,0.8,1.0,square,229.0,positive,0.5,2.75,5,1015,False,participant_PG16.csv
PG16,80/20,1,18,119742,square,circle,0.8,0.2,0.0,square,273.0,positive,0.5,3.25,5,1004,False,participant_PG16.csv
PG16,80/20,1,19,122087,circle,square,0.2,0.8,0.0,circle,262.0,negative,-0.25,3.0,5,1001,False,participant_PG16.csv
PG16,80/20,1,20,124484,square,circle,0.8,0.2,1.0,circle,328.0,negative,-0.25,2.75,5,1001,False,participant_PG16.csv
PG16,80/20,1,21,126833,circle,square,0.2,0.8,0.0,circle,280.0,negative,-0.25,2.5,5,1001,False,participant_PG16.csv
PG16,80/20,1,22,129161,circle,square,0.2,0.8,0.0,circle,246.0,negative,-0.25,2.25,5,1016,False,participant_PG16.csv
PG16,80/20,1,23,131586,circle,square,0.2,0.8,0.0,circle,349.0,negative,-0.25,2.0,5,1004,False,participant_PG16.csv
PG16,80/20,1,24,133946,circle,square,0.2,0.8,0.0,circle,278.0,negative,-0.25,1.75,5,1003,False,participant_PG16.csv
PG16,80/20,1,25,136316,square,circle,0.8,0.2,0.0,square,278.0,positive,0.5,2.25,5,1014,False,participant_PG16.csv
PG16,80/20,1,26,138689,square,circle,0.8,0.2,0.0,square,291.0,positive,0.5,2.75,5,1014,False,participant_PG16.csv
PG16,80/20,1,27,141153,square,circle,0.8,0.2,0.0,square,391.0,positive,0.5,3.25,5,1003,False,participant_PG16.csv
PG16,80/20,1,28,143535,square,circle,0.8,0.2,0.0,square,299.0,positive,0.5,3.75,5,1010,False,participant_PG16.csv
PG16,80/20,1,29,146081,square,circle,0.8,0.2,0.0,square,480.0,positive,0.5,4.25,5,1001,False,participant_PG16.csv
PG16,80/20,1,30,148434,circle,square,0.2,0.8,0.0,circle,279.0,negative,-0.25,4.0,5,1006,False,participant_PG16.csv
PG16,80/20,1,31,150742,square,circle,0.8,0.2,1.0,circle,231.0,negative,-0.25,3.75,5,1011,False,participant_PG16.csv
PG16,80/20,1,32,153042,circle,square,0.2,0.8,1.0,square,215.0,negative,-0.25,3.5,5,1002,False,participant_PG16.csv
PG16,80/20,1,33,155422,circle,square,0.2,0.8,0.0,circle,297.0,negative,-0.25,3.25,5,1014,False,participant_PG16.csv
PG16,80/20,1,34,157621,square,circle,0.8,0.2,1.0,circle,101.0,negative,-0.25,3.0,5,1016,False,participant_PG16.csv
PG16,80/20,1,35,160006,square,circle,0.8,0.2,0.0,square,294.0,negative,-0.25,2.75,5,1016,False,participant_PG16.csv
PG16,80/20,1,36,162360,square,circle,0.8,0.2,0.0,square,278.0,positive,0.5,3.25,5,1007,False,participant_PG16.csv
PG16,80/20,1,37,164749,square,circle,0.8,0.2,0.0,square,294.0,positive,0.5,3.75,5,1013,False,participant_PG16.csv
PG16,80/20,1,38,167065,square,circle,0.8,0.2,0.0,square,248.0,positive,0.5,4.25,5,1000,False,participant_PG16.csv
PG16,80/20,1,39,169485,square,circle,0.8,0.2,0.0,square,331.0,positive,0.5,4.75,5,1008,False,participant_PG16.csv
PG16,80/20,1,40,171843,square,circle,0.8,0.2,0.0,square,278.0,positive,0.5,5.25,5,1009,False,participant_PG16.csv
PG16,80/20,1,41,174333,square,circle,0.8,0.2,0.0,square,407.0,positive,0.5,5.75,5,1003,False,participant_PG16.csv
PG16,80/20,1,42,176535,square,circle,0.8,0.2,1.0,circle,132.0,negative,-0.25,5.5,5,1003,False,participant_PG16.csv
PG16,80/20,1,43,178746,square,circle,0.8,0.2,0.0,square,114.0,positive,0.5,6.0,5,1015,False,participant_PG16.csv
PG16,80/20,1,44,181043,circle,square,0.2,0.8,0.0,circle,227.0,negative,-0.25,5.75,5,1002,False,participant_PG16.csv
PG16,80/20,1,45,183223,circle,square,0.2,0.8,0.0,circle,100.0,negative,-0.25,5.5,5,1005,False,participant_PG16.csv
PG16,80/20,1,46,185326,square,circle,0.8,0.2,1.0,circle,34.0,positive,0.5,6.0,5,1003,False,participant_PG16.csv
PG16,80/20,1,47,187628,square,circle,0.8,0.2,1.0,circle,229.0,negative,-0.25,5.75,5,1003,False,participant_PG16.csv
PG16,80/20,1,48,190254,square,circle,0.8,0.2,0.0,square,540.0,negative,-0.25,5.5,5,1007,False,participant_PG16.csv
PG16,80/20,1,49,192555,square,circle,0.8,0.2,1.0,circle,229.0,positive,0.5,6.0,5,1002,False,participant_PG16.csv
PG16,80/20,1,50,194787,circle,square,0.2,0.8,1.0,square,147.0,positive,0.5,6.5,5,1000,False,participant_PG16.csv
PG16,80/20,1,51,197162,square,circle,0.8,0.2,1.0,circle,297.0,negative,-0.25,6.25,5,1008,False,participant_PG16.csv
PG16,80/20,1,52,199511,square,circle,0.8,0.2,0.0,square,244.0,positive,0.5,6.75,5,1015,False,participant_PG16.csv
PG16,80/20,1,53,201715,circle,square,0.2,0.8,0.0,circle,116.0,negative,-0.25,6.5,5,1015,False,participant_PG16.csv
PG16,80/20,1,54,203982,square,circle,0.8,0.2,1.0,circle,180.0,negative,-0.25,6.25,5,1012,False,participant_PG16.csv
PG16,80/20,1,55,206251,circle,square,0.2,0.8,1.0,square,195.0,positive,0.5,6.75,5,1006,False,participant_PG16.csv
PG16,80/20,1,56,208638,square,circle,0.8,0.2,1.0,circle,310.0,negative,-0.25,6.5,5,1001,False,participant_PG16.csv
PG16,80/20,1,57,211065,circle,square,0.2,0.8,0.0,circle,341.0,negative,-0.25,6.25,5,1004,False,participant_PG16.csv
PG16,80/20,1,58,213376,square,circle,0.8,0.2,1.0,circle,243.0,negative,-0.25,6.0,5,1004,False,participant_PG16.csv
PG16,80/20,1,59,215703,circle,square,0.2,0.8,0.0,circle,244.0,negative,-0.25,5.75,5,1005,False,participant_PG16.csv
PG16,80/20,1,60,218037,circle,square,0.2,0.8,0.0,circle,249.0,negative,-0.25,5.5,5,1015,False,participant_PG16.csv
PG16,50/50,2,1,225128,circle,square,0.5,0.5,0.0,circle,939.0,negative,-0.25,5.25,5,1003,False,participant_PG16.csv
PG16,50/50,2,2,227427,square,circle,0.5,0.5,0.0,square,232.0,positive,0.5,5.75,5,1003,False,participant_PG16.csv
PG16,50/50,2,3,229525,square,circle,0.5,0.5,0.0,square,17.0,positive,0.5,6.25,5,1003,False,participant_PG16.csv
PG16,50/50,2,4,231801,circle,square,0.5,0.5,1.0,square,199.0,positive,0.5,6.75,5,1010,False,participant_PG16.csv
PG16,50/50,2,5,234046,circle,square,0.5,0.5,1.0,square,167.0,negative,-0.25,6.5,5,1005,False,participant_PG16.csv
PG16,50/50,2,6,236636,circle,square,0.5,0.5,1.0,square,509.0,positive,0.5,7.0,5,1012,False,participant_PG16.csv
PG16,50/50,2,7,239067,square,circle,0.5,0.5,0.0,square,345.0,negative,-0.25,6.75,5,1015,False,participant_PG16.csv
PG16,50/50,2,8,241614,square,circle,0.5,0.5,0.0,square,476.0,positive,0.5,7.25,5,1003,False,participant_PG16.csv
PG16,50/50,2,9,243740,square,circle,0.5,0.5,0.0,square,32.0,positive,0.5,7.75,5,1003,False,participant_PG16.csv
PG16,50/50,2,10,246138,square,circle,0.5,0.5,0.0,square,311.0,positive,0.5,8.25,5,1008,False,participant_PG16.csv
PG16,50/50,2,11,248260,circle,square,0.5,0.5,1.0,square,32.0,positive,0.5,8.75,5,1000,False,participant_PG16.csv
PG16,50/50,2,12,250396,circle,square,0.5,0.5,1.0,square,49.0,negative,-0.25,8.5,5,1012,False,participant_PG16.csv
PG16,50/50,2,13,252849,circle,square,0.5,0.5,1.0,square,359.0,positive,0.5,9.0,5,1014,False,participant_PG16.csv
PG16,50/50,2,14,255216,circle,square,0.5,0.5,1.0,square,278.0,negative,-0.25,8.75,5,1006,False,participant_PG16.csv
PG16,50/50,2,15,257692,circle,square,0.5,0.5,1.0,square,393.0,positive,0.5,9.25,5,1011,False,participant_PG16.csv
PG16,50/50,2,16,260047,circle,square,0.5,0.5,1.0,square,265.0,positive,0.5,9.75,5,1015,False,participant_PG16.csv
PG16,50/50,2,17,262232,square,circle,0.5,0.5,0.0,square,98.0,negative,-0.25,9.5,5,1005,False,participant_PG16.csv
PG16,50/50,2,18,264491,circle,square,0.5,0.5,1.0,square,179.0,positive,0.5,10.0,5,1006,False,participant_PG16.csv
PG16,50/50,2,19,266776,square,circle,0.5,0.5,0.0,square,199.0,positive,0.5,10.5,5,1012,False,participant_PG16.csv
PG16,50/50,2,20,269032,circle,square,0.5,0.5,1.0,square,179.0,negative,-0.25,10.25,5,1009,False,participant_PG16.csv
PG16,50/50,2,21,271287,circle,square,0.5,0.5,1.0,square,176.0,negative,-0.25,10.0,5,1007,False,participant_PG16.csv
PG16,50/50,2,22,273848,square,circle,0.5,0.5,0.0,square,474.0,positive,0.5,10.5,5,1016,False,participant_PG16.csv
PG16,50/50,2,23,276294,circle,square,0.5,0.5,1.0,square,344.0,positive,0.5,11.0,5,1014,False,participant_PG16.csv
PG16,50/50,2,24,278651,square,circle,0.5,0.5,0.0,square,283.0,positive,0.5,11.5,5,1001,False,participant_PG16.csv
PG16,50/50,2,25,281115,square,circle,0.5,0.5,0.0,square,376.0,negative,-0.25,11.25,5,1013,False,participant_PG16.csv
PG16,50/50,2,26,283546,square,circle,0.5,0.5,0.0,square,345.0,positive,0.5,11.75,5,1015,False,participant_PG16.csv
PG16,50/50,2,27,286060,circle,square,0.5,0.5,1.0,square,430.0,positive,0.5,12.25,5,1004,False,participant_PG16.csv
PG16,50/50,2,28,288458,circle,square,0.5,0.5,1.0,square,309.0,positive,0.5,12.75,5,1006,False,participant_PG16.csv
PG16,50/50,2,29,291034,square,circle,0.5,0.5,0.0,square,478.0,negative,-0.25,12.5,5,1015,False,participant_PG16.csv
PG16,50/50,2,30,293427,circle,square,0.5,0.5,1.0,square,313.0,negative,-0.25,12.25,5,1013,False,participant_PG16.csv
PG16,50/50,2,31,295866,circle,square,0.5,0.5,1.0,square,360.0,negative,-0.25,12.0,5,1000,False,participant_PG16.csv
PG16,50/50,2,32,298412,circle,square,0.5,0.5,1.0,square,464.0,positive,0.5,12.5,5,1002,False,participant_PG16.csv
PG16,50/50,2,33,300772,circle,square,0.5,0.5,1.0,square,278.0,negative,-0.25,12.25,5,1015,False,participant_PG16.csv
PG16,50/50,2,34,303331,square,circle,0.5,0.5,0.0,square,475.0,negative,-0.25,12.0,5,1002,False,participant_PG16.csv
PG16,50/50,2,35,305663,circle,square,0.5,0.5,1.0,square,251.0,positive,0.5,12.5,5,1006,False,participant_PG16.csv
PG16,50/50,2,36,308115,square,circle,0.5,0.5,0.0,square,373.0,negative,-0.25,12.25,5,1004,False,participant_PG16.csv
PG16,50/50,2,37,310505,square,circle,0.5,0.5,0.0,square,310.0,negative,-0.25,12.0,5,1004,False,participant_PG16.csv
PG16,50/50,2,38,312808,square,circle,0.5,0.5,0.0,square,231.0,negative,-0.25,11.75,5,1000,False,participant_PG16.csv
PG16,50/50,2,39,315139,circle,square,0.5,0.5,1.0,square,261.0,negative,-0.25,11.5,5,1000,False,participant_PG16.csv
PG16,50/50,2,40,317410,square,circle,0.5,0.5,0.0,square,178.0,positive,0.5,12.0,5,1017,False,participant_PG16.csv
PG16,50/50,2,41,319709,square,circle,0.5,0.5,0.0,square,228.0,positive,0.5,12.5,5,1007,False,participant_PG16.csv
PG16,50/50,2,42,322085,circle,square,0.5,0.5,1.0,square,296.0,negative,-0.25,12.25,5,1000,False,participant_PG16.csv
PG16,50/50,2,43,324424,circle,square,0.5,0.5,1.0,square,260.0,negative,-0.25,12.0,5,1009,False,participant_PG16.csv
PG16,50/50,2,44,326783,circle,square,0.5,0.5,1.0,square,275.0,negative,-0.25,11.75,5,1003,False,participant_PG16.csv
PG16,50/50,2,45,328942,circle,square,0.5,0.5,1.0,square,66.0,negative,-0.25,11.5,5,1002,False,participant_PG16.csv
PG16,50/50,2,46,331250,circle,square,0.5,0.5,1.0,square,233.0,positive,0.5,12.0,5,1008,False,participant_PG16.csv
PG16,50/50,2,47,333643,circle,square,0.5,0.5,1.0,square,309.0,negative,-0.25,11.75,5,1002,False,participant_PG16.csv
PG16,50/50,2,48,336022,circle,square,0.5,0.5,1.0,square,296.0,positive,0.5,12.25,5,1013,False,participant_PG16.csv
PG16,50/50,2,49,338465,square,circle,0.5,0.5,0.0,square,360.0,positive,0.5,12.75,5,1015,False,participant_PG16.csv
PG16,50/50,2,50,340756,square,circle,0.5,0.5,0.0,square,215.0,positive,0.5,13.25,5,1005,False,participant_PG16.csv
PG16,50/50,2,51,343310,circle,square,0.5,0.5,1.0,square,458.0,negative,-0.25,13.0,5,1015,False,participant_PG16.csv
PG16,50/50,2,52,345460,circle,square,0.5,0.5,1.0,square,65.0,positive,0.5,13.5,5,1004,False,participant_PG16.csv
PG16,50/50,2,53,347843,circle,square,0.5,0.5,1.0,square,314.0,positive,0.5,14.0,5,1000,False,participant_PG16.csv
PG16,50/50,2,54,350241,circle,square,0.5,0.5,1.0,square,315.0,positive,0.5,14.5,5,1000,False,participant_PG16.csv
PG16,50/50,2,55,352731,circle,square,0.5,0.5,1.0,square,410.0,positive,0.5,15.0,5,1014,False,participant_PG16.csv
PG16,50/50,2,56,355168,square,circle,0.5,0.5,0.0,square,341.0,negative,-0.25,14.75,5,1014,False,participant_PG16.csv
PG16,50/50,2,57,357482,square,circle,0.5,0.5,0.0,square,230.0,positive,0.5,15.25,5,1000,False,participant_PG16.csv
PG16,50/50,2,58,360015,square,circle,0.5,0.5,0.0,square,463.0,negative,-0.25,15.0,5,1003,False,participant_PG16.csv
PG16,50/50,2,59,362407,square,circle,0.5,0.5,0.0,square,314.0,positive,0.5,15.5,5,1010,False,participant_PG16.csv
PG16,50/50,2,60,364777,square,circle,0.5,0.5,0.0,square,293.0,negative,-0.25,15.25,5,1005,False,participant_PG16.csv
PG17,80/20,1,1,103182,circle,square,0.8,0.2,,,,,0.0,0.0,5,1013,True,PG17_PRL.csv
PG17,80/20,1,2,105349,square,circle,0.2,0.8,0.0,square,117.0,negative,0.0,0.0,5,1001,True,PG17_PRL.csv
PG17,80/20,1,3,108435,circle,square,0.8,0.2,,,,,0.0,0.0,5,1010,True,PG17_PRL.csv
PG17,80/20,1,4,110521,circle,square,0.8,0.2,0.0,circle,15.0,positive,0.0,0.0,5,1009,True,PG17_PRL.csv
PG17,80/20,1,5,113620,circle,square,0.8,0.2,,,,,0.0,0.0,5,1012,True,PG17_PRL.csv
PG17,80/20,1,6,116442,circle,square,0.8,0.2,0.0,circle,762.0,positive,0.0,0.0,5,1000,True,PG17_PRL.csv
PG17,80/20,1,7,118788,circle,square,0.8,0.2,0.0,circle,266.0,negative,0.0,0.0,5,1014,True,PG17_PRL.csv
PG17,80/20,1,8,120885,square,circle,0.2,0.8,1.0,circle,32.0,negative,0.0,0.0,5,1014,True,PG17_PRL.csv
PG17,80/20,1,9,123131,circle,square,0.8,0.2,0.0,circle,168.0,positive,0.0,0.0,5,1014,True,PG17_PRL.csv
PG17,80/20,1,10,125239,square,circle,0.2,0.8,1.0,circle,33.0,positive,0.0,0.0,5,1012,True,PG17_PRL.csv
PG17,80/20,1,11,127949,square,circle,0.2,0.8,1.0,circle,643.0,positive,0.0,0.0,5,1004,True,PG17_PRL.csv
PG17,80/20,1,12,130055,square,circle,0.2,0.8,1.0,circle,33.0,negative,0.0,0.0,5,1010,True,PG17_PRL.csv
PG17,80/20,1,13,132218,square,circle,0.2,0.8,0.0,square,101.0,negative,0.0,0.0,5,1011,True,PG17_PRL.csv
PG17,80/20,1,14,134341,circle,square,0.8,0.2,1.0,square,49.0,negative,0.0,0.0,5,1014,True,PG17_PRL.csv
PG17,80/20,1,15,137420,circle,square,0.8,0.2,,,,,0.0,0.0,5,1014,True,PG17_PRL.csv
PG17,80/20,1,16,139533,square,circle,0.2,0.8,0.0,square,33.0,negative,0.0,0.0,5,1013,True,PG17_PRL.csv
PG17,80/20,1,17,141769,square,circle,0.2,0.8,1.0,circle,167.0,positive,0.0,0.0,5,1005,True,PG17_PRL.csv
PG17,80/20,1,18,144029,square,circle,0.2,0.8,1.0,circle,195.0,positive,0.0,0.0,5,1002,True,PG17_PRL.csv
PG17,80/20,1,19,146170,circle,square,0.8,0.2,0.0,circle,66.0,positive,0.0,0.0,5,1016,True,PG17_PRL.csv
PG17,80/20,1,20,148389,square,circle,0.2,0.8,1.0,circle,149.0,negative,0.0,0.0,5,1009,True,PG17_PRL.csv
PG17,80/20,1,1,156320,circle,square,0.8,0.2,0.0,circle,16.0,negative,-0.25,-0.25,5,1007,False,PG17_PRL.csv
PG17,80/20,1,2,159126,square,circle,0.2,0.8,1.0,circle,729.0,positive,0.5,0.25,5,1011,False,PG17_PRL.csv
PG17,80/20,1,3,161316,square,circle,0.2,0.8,1.0,circle,117.0,positive,0.5,0.75,5,1007,False,PG17_PRL.csv
PG17,80/20,1,4,163456,circle,square,0.8,0.2,0.0,circle,66.0,positive,0.5,1.25,5,1009,False,PG17_PRL.csv
PG17,80/20,1,5,165660,circle,square,0.8,0.2,0.0,circle,129.0,positive,0.5,1.75,5,1009,False,PG17_PRL.csv
PG17,80/20,1,6,167761,square,circle,0.2,0.8,0.0,square,32.0,negative,-0.25,1.5,5,1014,False,PG17_PRL.csv
PG17,80/20,1,7,169858,circle,square,0.8,0.2,1.0,square,33.0,positive,0.5,2.0,5,1006,False,PG17_PRL.csv
PG17,80/20,1,8,172079,square,circle,0.2,0.8,0.0,square,148.0,negative,-0.25,1.75,5,1009,False,PG17_PRL.csv
PG17,80/20,1,9,174173,circle,square,0.8,0.2,1.0,square,15.0,negative,-0.25,1.5,5,1014,False,PG17_PRL.csv
PG17,80/20,1,10,176794,circle,square,0.8,0.2,1.0,square,547.0,negative,-0.25,1.25,5,1013,False,PG17_PRL.csv
PG17,80/20,1,11,178942,circle,square,0.8,0.2,0.0,circle,82.0,positive,0.5,1.75,5,1000,False,PG17_PRL.csv
PG17,80/20,1,12,181186,square,circle,0.2,0.8,1.0,circle,167.0,positive,0.5,2.25,5,1015,False,PG17_PRL.csv
PG17,80/20,1,13,183417,circle,square,0.8,0.2,0.0,circle,162.0,negative,-0.25,2.0,5,1002,False,PG17_PRL.csv
PG17,80/20,1,14,185520,circle,square,0.8,0.2,0.0,circle,32.0,positive,0.5,2.5,5,1009,False,PG17_PRL.csv
PG17,80/20,1,15,187740,square,circle,0.2,0.8,1.0,circle,162.0,positive,0.5,3.0,5,1000,False,PG17_PRL.csv
PG17,80/20,1,16,189926,square,circle,0.2,0.8,1.0,circle,115.0,positive,0.5,3.5,5,1013,False,PG17_PRL.csv
PG17,80/20,1,17,192068,circle,square,0.8,0.2,0.0,circle,65.0,positive,0.5,4.0,5,1005,False,PG17_PRL.csv
PG17,80/20,1,18,194306,square,circle,0.2,0.8,1.0,circle,180.0,positive,0.5,4.5,5,1005,False,PG17_PRL.csv
PG17,80/20,1,19,196462,circle,square,0.8,0.2,0.0,circle,97.0,positive,0.5,5.0,5,1007,False,PG17_PRL.csv
PG17,80/20,1,20,198638,square,circle,0.2,0.8,1.0,circle,99.0,positive,0.5,5.5,5,1010,False,PG17_PRL.csv
PG17,80/20,1,21,200781,circle,square,0.8,0.2,0.0,circle,65.0,positive,0.5,6.0,5,1011,False,PG17_PRL.csv
PG17,80/20,1,22,203037,square,circle,0.2,0.8,1.0,circle,182.0,negative,-0.25,5.75,5,1012,False,PG17_PRL.csv
PG17,80/20,1,23,205184,circle,square,0.8,0.2,0.0,circle,80.0,positive,0.5,6.25,5,1006,False,PG17_PRL.csv
PG17,80/20,1,24,207394,square,circle,0.2,0.8,1.0,circle,146.0,positive,0.5,6.75,5,1012,False,PG17_PRL.csv
PG17,80/20,1,25,209571,circle,square,0.8,0.2,0.0,circle,99.0,positive,0.5,7.25,5,1001,False,PG17_PRL.csv
PG17,80/20,1,26,211684,circle,square,0.8,0.2,0.0,circle,33.0,positive,0.5,7.75,5,1002,False,PG17_PRL.csv
PG17,80/20,1,27,213851,square,circle,0.2,0.8,1.0,circle,101.0,positive,0.5,8.25,5,1001,False,PG17_PRL.csv
PG17,80/20,1,28,216028,square,circle,0.2,0.8,1.0,circle,116.0,negative,-0.25,8.0,5,1004,False,PG17_PRL.csv
PG17,80/20,1,29,218192,circle,square,0.8,0.2,0.0,circle,99.0,positive,0.5,8.5,5,1007,False,PG17_PRL.csv
PG17,80/20,1,30,220319,square,circle,0.2,0.8,1.0,circle,49.0,positive,0.5,9.0,5,1009,False,PG17_PRL.csv
PG17,80/20,1,31,222531,square,circle,0.2,0.8,1.0,circle,131.0,positive,0.5,9.5,5,1015,False,PG17_PRL.csv
PG17,80/20,1,32,224636,circle,square,0.8,0.2,0.0,circle,33.0,positive,0.5,10.0,5,1016,False,PG17_PRL.csv
PG17,80/20,1,33,226838,circle,square,0.8,0.2,0.0,circle,130.0,positive,0.5,10.5,5,1009,False,PG17_PRL.csv
PG17,80/20,1,34,229012,circle,square,0.8,0.2,0.0,circle,96.0,positive,0.5,11.0,5,1012,False,PG17_PRL.csv
PG17,80/20,1,35,231197,circle,square,0.8,0.2,0.0,circle,114.0,positive,0.5,11.5,5,1009,False,PG17_PRL.csv
PG17,80/20,1,36,233372,circle,square,0.8,0.2,0.0,circle,100.0,positive,0.5,12.0,5,1010,False,PG17_PRL.csv
PG17,80/20,1,37,235597,square,circle,0.2,0.8,1.0,circle,146.0,positive,0.5,12.5,5,1007,False,PG17_PRL.csv
PG17,80/20,1,38,237663,square,circle,0.2,0.8,1.0,circle,16.0,positive,0.5,13.0,5,1001,False,PG17_PRL.csv
PG17,80/20,1,39,239858,circle,square,0.8,0.2,0.0,circle,130.0,positive,0.5,13.5,5,1001,False,PG17_PRL.csv
PG17,80/20,1,40,242028,circle,square,0.8,0.2,0.0,circle,115.0,positive,0.5,14.0,5,1003,False,PG17_PRL.csv
PG17,80/20,1,41,244147,square,circle,0.2,0.8,1.0,circle,50.0,positive,0.5,14.5,5,1007,False,PG17_PRL.csv
PG17,80/20,1,42,246294,square,circle,0.2,0.8,1.0,circle,65.0,positive,0.5,15.0,5,1016,False,PG17_PRL.csv
PG17,80/20,1,43,248404,circle,square,0.8,0.2,0.0,circle,32.0,negative,-0.25,14.75,5,1015,False,PG17_PRL.csv
PG17,80/20,1,44,250581,square,circle,0.2,0.8,1.0,circle,99.0,negative,-0.25,14.5,5,1003,False,PG17_PRL.csv
PG17,80/20,1,45,252784,square,circle,0.2,0.8,0.0,square,134.0,negative,-0.25,14.25,5,1012,False,PG17_PRL.csv
PG17,80/20,1,46,254946,circle,square,0.8,0.2,1.0,square,82.0,negative,-0.25,14.0,5,1014,False,PG17_PRL.csv
PG17,80/20,1,47,257104,square,circle,0.2,0.8,1.0,circle,83.0,positive,0.5,14.5,5,1009,False,PG17_PRL.csv
PG17,80/20,1,48,259224,square,circle,0.2,0.8,1.0,circle,49.0,positive,0.5,15.0,5,1009,False,PG17_PRL.csv
